,Unnamed: 0,Unnamed: 0.1,trial_index,weekId,subjectId,expId,rt,small_amount,large_amount,later_delay,choice,date
0,0,5,5,1,bkvnluqzwjwe,itc,7860.0,24.0,25.0,104.0,0,07/13/2020
1,1,7,7,1,bkvnluqzwjwe,itc,6868.0,13.0,30.0,218.0,0,07/13/2020
2,2,9,9,1,bkvnluqzwjwe,itc,3492.0,40.0,80.0,10.0,1,07/13/2020
3,3,11,11,1,bkvnluqzwjwe,itc,3114.0,77.0,80.0,39.0,0,07/13/2020
4,4,13,13,1,bkvnluqzwjwe,itc,1904.0,24.0,25.0,260.0,0,07/13/2020
5,5,15,15,1,bkvnluqzwjwe,itc,5732.0,10.0,35.0,61.0,1,07/13/2020
6,6,17,17,1,bkvnluqzwjwe,itc,1753.0,20.0,85.0,13.0,1,07/13/2020
7,7,19,19,1,bkvnluqzwjwe,itc,2408.0,14.0,35.0,15.0,1,07/13/2020
8,8,21,21,1,bkvnluqzwjwe,itc,5365.0,39.0,50.0,47.0,1,07/13/2020
9,9,23,23,1,bkvnluqzwjwe,itc,2120.0,54.0,85.0,14.0,1,07/13/2020
10,10,25,25,1,bkvnluqzwjwe,itc,4468.0,10.0,60.0,122.0,1,07/13/2020
11,11,27,27,1,bkvnluqzwjwe,itc,2748.0,5.0,25.0,16.0,1,07/13/2020
12,12,29,29,1,bkvnluqzwjwe,itc,3447.0,32.0,75.0,84.0,1,07/13/2020
13,13,31,31,1,bkvnluqzwjwe,itc,3097.0,82.0,85.0,229.0,0,07/13/2020
14,14,33,33,1,bkvnluqzwjwe,itc,1757.0,72.0,75.0,104.0,0,07/13/2020
15,15,35,35,1,bkvnluqzwjwe,itc,2550.0,27.0,30.0,111.0,0,07/13/2020
16,16,37,37,1,bkvnluqzwjwe,itc,5976.0,11.0,30.0,108.0,1,07/13/2020
17,17,39,39,1,bkvnluqzwjwe,itc,7056.0,28.0,35.0,100.0,0,07/13/2020
18,18,41,41,1,bkvnluqzwjwe,itc,3009.0,20.0,60.0,125.0,1,07/13/2020
19,19,43,43,1,bkvnluqzwjwe,itc,1752.0,52.0,55.0,144.0,0,07/13/2020
20,20,45,45,1,bkvnluqzwjwe,itc,2734.0,50.0,80.0,100.0,1,07/13/2020
21,21,47,47,1,bkvnluqzwjwe,itc,2056.0,25.0,50.0,10.0,1,07/13/2020
22,22,49,49,1,bkvnluqzwjwe,itc,2931.0,49.0,50.0,127.0,0,07/13/2020
23,23,51,51,1,bkvnluqzwjwe,itc,3853.0,50.0,55.0,100.0,0,07/13/2020
24,24,53,53,1,bkvnluqzwjwe,itc,9798.0,50.0,60.0,80.0,1,07/13/2020
25,25,55,55,1,bkvnluqzwjwe,itc,4774.0,60.0,75.0,100.0,1,07/13/2020
26,26,57,57,1,bkvnluqzwjwe,itc,1505.0,20.0,55.0,7.0,1,07/13/2020
27,2835,5,5,2,bkvnluqzwjwe,itc,8776.0,5.0,25.0,16.0,1,07/13/2020
28,2836,7,7,2,bkvnluqzwjwe,itc,4732.0,32.0,35.0,234.0,0,07/13/2020
29,2837,9,9,2,bkvnluqzwjwe,itc,3566.0,25.0,55.0,75.0,1,07/13/2020
30,2838,11,11,2,bkvnluqzwjwe,itc,4844.0,53.0,60.0,22.0,1,07/13/2020
31,2839,13,13,2,bkvnluqzwjwe,itc,1994.0,15.0,30.0,10.0,1,07/13/2020
32,2840,15,15,2,bkvnluqzwjwe,itc,3978.0,33.0,80.0,89.0,1,07/13/2020
33,2841,17,17,2,bkvnluqzwjwe,itc,3693.0,25.0,35.0,25.0,1,07/13/2020
34,2842,19,19,2,bkvnluqzwjwe,itc,3413.0,27.0,30.0,111.0,0,07/13/2020
35,2844,23,23,2,bkvnluqzwjwe,itc,8537.0,50.0,55.0,100.0,0,07/13/2020
36,2845,25,25,2,bkvnluqzwjwe,itc,3085.0,10.0,35.0,61.0,1,07/13/2020
37,2846,27,27,2,bkvnluqzwjwe,itc,3658.0,25.0,55.0,12.0,1,07/13/2020
38,2847,29,29,2,bkvnluqzwjwe,itc,2271.0,40.0,80.0,10.0,1,07/13/2020
39,2849,33,33,2,bkvnluqzwjwe,itc,7825.0,25.0,30.0,80.0,0,07/13/2020
40,2851,37,37,2,bkvnluqzwjwe,itc,2626.0,54.0,85.0,14.0,1,07/13/2020
41,2852,39,39,2,bkvnluqzwjwe,itc,2953.0,20.0,60.0,8.0,1,07/13/2020
42,2853,41,41,2,bkvnluqzwjwe,itc,6948.0,72.0,75.0,104.0,0,07/13/2020
43,2854,43,43,2,bkvnluqzwjwe,itc,5201.0,73.0,75.0,171.0,0,07/13/2020
44,2855,45,45,2,bkvnluqzwjwe,itc,5016.0,24.0,25.0,260.0,0,07/13/2020
45,2856,47,47,2,bkvnluqzwjwe,itc,2275.0,20.0,80.0,12.0,1,07/13/2020
46,2857,49,49,2,bkvnluqzwjwe,itc,5982.0,80.0,85.0,25.0,1,07/13/2020
47,2859,53,53,2,bkvnluqzwjwe,itc,4916.0,14.0,25.0,131.0,1,07/13/2020
48,2860,55,55,2,bkvnluqzwjwe,itc,4916.0,59.0,60.0,106.0,0,07/13/2020
49,2861,57,57,2,bkvnluqzwjwe,itc,3384.0,49.0,50.0,51.0,0,07/13/2020
50,5536,7,7,3,bkvnluqzwjwe,itc,7249.0,25.0,55.0,12.0,1,07/13/2020
51,5537,9,9,3,bkvnluqzwjwe,itc,2772.0,20.0,80.0,12.0,1,07/13/2020
52,5538,11,11,3,bkvnluqzwjwe,itc,8273.0,32.0,75.0,84.0,1,07/13/2020
53,5539,13,13,3,bkvnluqzwjwe,itc,7245.0,23.0,35.0,87.0,1,07/13/2020
54,5540,15,15,3,bkvnluqzwjwe,itc,7994.0,50.0,60.0,80.0,1,07/13/2020
55,5541,17,17,3,bkvnluqzwjwe,itc,3345.0,34.0,35.0,183.0,0,07/13/2020
56,5542,19,19,3,bkvnluqzwjwe,itc,2056.0,54.0,85.0,14.0,1,07/13/2020
57,5543,21,21,3,bkvnluqzwjwe,itc,7983.0,6.0,25.0,198.0,1,07/13/2020
58,5544,23,23,3,bkvnluqzwjwe,itc,2445.0,15.0,30.0,10.0,1,07/13/2020
59,5545,25,25,3,bkvnluqzwjwe,itc,3257.0,82.0,85.0,229.0,0,07/13/2020
60,5546,27,27,3,bkvnluqzwjwe,itc,2509.0,23.0,25.0,87.0,0,07/13/2020
61,5547,29,29,3,bkvnluqzwjwe,itc,2547.0,60.0,75.0,100.0,1,07/13/2020
62,5548,31,31,3,bkvnluqzwjwe,itc,6551.0,25.0,30.0,80.0,0,07/13/2020
63,5549,33,33,3,bkvnluqzwjwe,itc,1539.0,50.0,85.0,7.0,1,07/13/2020
64,5550,35,35,3,bkvnluqzwjwe,itc,2019.0,50.0,80.0,100.0,1,07/13/2020
65,5551,37,37,3,bkvnluqzwjwe,itc,2745.0,59.0,60.0,17.0,0,07/13/2020
66,5552,39,39,3,bkvnluqzwjwe,itc,2989.0,29.0,30.0,86.0,0,07/13/2020
67,5553,41,41,3,bkvnluqzwjwe,itc,1683.0,10.0,60.0,122.0,1,07/13/2020
68,5554,43,43,3,bkvnluqzwjwe,itc,2174.0,5.0,25.0,16.0,1,07/13/2020
69,5555,45,45,3,bkvnluqzwjwe,itc,2175.0,19.0,50.0,102.0,1,07/13/2020
70,5556,47,47,3,bkvnluqzwjwe,itc,2093.0,10.0,35.0,61.0,1,07/13/2020
71,5557,49,49,3,bkvnluqzwjwe,itc,1950.0,31.0,55.0,129.0,1,07/13/2020
72,5558,51,51,3,bkvnluqzwjwe,itc,1878.0,10.0,50.0,16.0,1,07/13/2020
73,5559,53,53,3,bkvnluqzwjwe,itc,3589.0,49.0,50.0,51.0,0,07/13/2020
74,5560,55,55,3,bkvnluqzwjwe,itc,2855.0,78.0,80.0,64.0,0,07/13/2020
75,5561,57,57,3,bkvnluqzwjwe,itc,3101.0,54.0,55.0,116.0,0,07/13/2020
76,8154,5,5,4,bkvnluqzwjwe,itc,8987.0,34.0,80.0,33.0,1,07/13/2020
77,8156,9,9,4,bkvnluqzwjwe,itc,3818.0,5.0,55.0,244.0,1,07/13/2020
78,8157,11,11,4,bkvnluqzwjwe,itc,4707.0,31.0,55.0,129.0,1,07/13/2020
79,8158,13,13,4,bkvnluqzwjwe,itc,2308.0,20.0,55.0,7.0,1,07/13/2020
80,8159,15,15,4,bkvnluqzwjwe,itc,1886.0,5.0,25.0,16.0,1,07/13/2020
81,8160,17,17,4,bkvnluqzwjwe,itc,5022.0,78.0,80.0,64.0,0,07/13/2020
82,8161,19,19,4,bkvnluqzwjwe,itc,2240.0,14.0,35.0,15.0,1,07/13/2020
83,8162,21,21,4,bkvnluqzwjwe,itc,1807.0,20.0,80.0,12.0,1,07/13/2020
84,8163,23,23,4,bkvnluqzwjwe,itc,3577.0,49.0,50.0,127.0,0,07/13/2020
85,8165,27,27,4,bkvnluqzwjwe,itc,1736.0,30.0,75.0,15.0,1,07/13/2020
86,8166,29,29,4,bkvnluqzwjwe,itc,4143.0,34.0,85.0,250.0,1,07/13/2020
87,8167,31,31,4,bkvnluqzwjwe,itc,5512.0,13.0,30.0,218.0,1,07/13/2020
88,8168,33,33,4,bkvnluqzwjwe,itc,6707.0,50.0,60.0,80.0,1,07/13/2020
89,8169,35,35,4,bkvnluqzwjwe,itc,2174.0,24.0,25.0,104.0,0,07/13/2020
90,8171,39,39,4,bkvnluqzwjwe,itc,3280.0,10.0,35.0,61.0,1,07/13/2020
91,8173,43,43,4,bkvnluqzwjwe,itc,2358.0,23.0,25.0,87.0,0,07/13/2020
92,8174,45,45,4,bkvnluqzwjwe,itc,2895.0,82.0,85.0,229.0,0,07/13/2020
93,8175,47,47,4,bkvnluqzwjwe,itc,3514.0,32.0,75.0,84.0,1,07/13/2020
94,8176,49,49,4,bkvnluqzwjwe,itc,5116.0,59.0,60.0,17.0,0,07/13/2020
95,8177,51,51,4,bkvnluqzwjwe,itc,5684.0,25.0,50.0,10.0,1,07/13/2020
96,8178,53,53,4,bkvnluqzwjwe,itc,1634.0,34.0,35.0,183.0,0,07/13/2020
97,8179,55,55,4,bkvnluqzwjwe,itc,3370.0,20.0,60.0,125.0,1,07/13/2020
98,8180,57,57,4,bkvnluqzwjwe,itc,2502.0,49.0,50.0,51.0,0,07/13/2020
99,10693,7,7,5,bkvnluqzwjwe,itc,4950.0,80.0,85.0,25.0,1,07/13/2020
100,10694,9,9,5,bkvnluqzwjwe,itc,6392.0,49.0,50.0,127.0,0,07/13/2020
101,10695,11,11,5,bkvnluqzwjwe,itc,2460.0,10.0,35.0,10.0,1,07/13/2020
102,10696,13,13,5,bkvnluqzwjwe,itc,5588.0,6.0,25.0,198.0,1,07/13/2020
103,10697,15,15,5,bkvnluqzwjwe,itc,8937.0,27.0,30.0,111.0,0,07/13/2020
104,10698,17,17,5,bkvnluqzwjwe,itc,6475.0,25.0,55.0,12.0,1,07/13/2020
105,10699,19,19,5,bkvnluqzwjwe,itc,5719.0,5.0,30.0,122.0,1,07/13/2020
106,10700,21,21,5,bkvnluqzwjwe,itc,3594.0,28.0,35.0,100.0,1,07/13/2020
107,10701,23,23,5,bkvnluqzwjwe,itc,2330.0,40.0,80.0,10.0,1,07/13/2020
108,10702,25,25,5,bkvnluqzwjwe,itc,3423.0,34.0,85.0,250.0,1,07/13/2020
109,10703,27,27,5,bkvnluqzwjwe,itc,1780.0,10.0,25.0,15.0,1,07/13/2020
110,10704,29,29,5,bkvnluqzwjwe,itc,2780.0,10.0,50.0,16.0,1,07/13/2020
111,10705,31,31,5,bkvnluqzwjwe,itc,2506.0,20.0,85.0,13.0,1,07/13/2020
112,10706,33,33,5,bkvnluqzwjwe,itc,1858.0,12.0,75.0,128.0,1,07/13/2020
113,10707,35,35,5,bkvnluqzwjwe,itc,8453.0,72.0,75.0,104.0,0,07/13/2020
114,10708,37,37,5,bkvnluqzwjwe,itc,5114.0,52.0,55.0,144.0,0,07/13/2020
115,10709,39,39,5,bkvnluqzwjwe,itc,3383.0,53.0,60.0,22.0,1,07/13/2020
116,10710,41,41,5,bkvnluqzwjwe,itc,8678.0,79.0,80.0,79.0,0,07/13/2020
117,10711,43,43,5,bkvnluqzwjwe,itc,9445.0,29.0,30.0,215.0,0,07/13/2020
118,10712,45,45,5,bkvnluqzwjwe,itc,7955.0,50.0,55.0,40.0,1,07/13/2020
119,10713,47,47,5,bkvnluqzwjwe,itc,4246.0,32.0,35.0,234.0,0,07/13/2020
120,10714,49,49,5,bkvnluqzwjwe,itc,2149.0,33.0,80.0,89.0,1,07/13/2020
121,10715,51,51,5,bkvnluqzwjwe,itc,5598.0,69.0,75.0,87.0,1,07/13/2020
122,10716,53,53,5,bkvnluqzwjwe,itc,2460.0,10.0,60.0,122.0,1,07/13/2020
123,10717,55,55,5,bkvnluqzwjwe,itc,2581.0,20.0,60.0,125.0,1,07/13/2020
124,13230,5,5,6,bkvnluqzwjwe,itc,9261.0,34.0,85.0,250.0,1,07/13/2020
125,13231,7,7,6,bkvnluqzwjwe,itc,3098.0,32.0,35.0,234.0,0,07/13/2020
126,13232,9,9,6,bkvnluqzwjwe,itc,4396.0,24.0,25.0,260.0,0,07/13/2020
127,13233,11,11,6,bkvnluqzwjwe,itc,5218.0,78.0,80.0,64.0,0,07/13/2020
128,13234,13,13,6,bkvnluqzwjwe,itc,3328.0,53.0,60.0,22.0,1,07/13/2020
129,13235,15,15,6,bkvnluqzwjwe,itc,4254.0,5.0,55.0,244.0,1,07/13/2020
130,13237,19,19,6,bkvnluqzwjwe,itc,3578.0,49.0,50.0,127.0,0,07/13/2020
131,13238,21,21,6,bkvnluqzwjwe,itc,2601.0,20.0,80.0,12.0,1,07/13/2020
132,13239,23,23,6,bkvnluqzwjwe,itc,1893.0,10.0,50.0,16.0,1,07/13/2020
133,13240,25,25,6,bkvnluqzwjwe,itc,2943.0,5.0,30.0,122.0,1,07/13/2020
134,13241,27,27,6,bkvnluqzwjwe,itc,3623.0,25.0,35.0,25.0,1,07/13/2020
135,13242,29,29,6,bkvnluqzwjwe,itc,1940.0,12.0,75.0,128.0,1,07/13/2020
136,13243,31,31,6,bkvnluqzwjwe,itc,2347.0,32.0,75.0,84.0,1,07/13/2020
137,13244,33,33,6,bkvnluqzwjwe,itc,1516.0,5.0,25.0,16.0,1,07/13/2020
138,13245,35,35,6,bkvnluqzwjwe,itc,4036.0,73.0,75.0,171.0,0,07/13/2020
139,13246,37,37,6,bkvnluqzwjwe,itc,4781.0,23.0,25.0,87.0,0,07/13/2020
140,13247,39,39,6,bkvnluqzwjwe,itc,2425.0,50.0,60.0,80.0,1,07/13/2020
141,13248,41,41,6,bkvnluqzwjwe,itc,2700.0,40.0,80.0,10.0,1,07/13/2020
142,13249,43,43,6,bkvnluqzwjwe,itc,3541.0,50.0,55.0,100.0,1,07/13/2020
143,13250,45,45,6,bkvnluqzwjwe,itc,5300.0,23.0,35.0,87.0,1,07/13/2020
144,13251,47,47,6,bkvnluqzwjwe,itc,2929.0,25.0,55.0,75.0,1,07/13/2020
145,13252,49,49,6,bkvnluqzwjwe,itc,3488.0,49.0,50.0,51.0,0,07/13/2020
146,13253,51,51,6,bkvnluqzwjwe,itc,2296.0,30.0,60.0,10.0,1,07/13/2020
147,13254,53,53,6,bkvnluqzwjwe,itc,7316.0,25.0,30.0,80.0,1,07/13/2020
148,13255,55,55,6,bkvnluqzwjwe,itc,2307.0,80.0,85.0,25.0,1,07/13/2020
149,13256,57,57,6,bkvnluqzwjwe,itc,1625.0,15.0,30.0,10.0,1,07/13/2020
150,15633,5,5,7,bkvnluqzwjwe,itc,9218.0,30.0,60.0,10.0,1,07/13/2020
151,15634,7,7,7,bkvnluqzwjwe,itc,5996.0,79.0,85.0,190.0,0,07/13/2020
152,15635,9,9,7,bkvnluqzwjwe,itc,1531.0,50.0,85.0,7.0,1,07/13/2020
153,15636,11,11,7,bkvnluqzwjwe,itc,3398.0,23.0,35.0,87.0,1,07/13/2020
154,15637,13,13,7,bkvnluqzwjwe,itc,2440.0,40.0,50.0,100.0,1,07/13/2020
155,15638,15,15,7,bkvnluqzwjwe,itc,3835.0,20.0,60.0,8.0,1,07/13/2020
156,15639,17,17,7,bkvnluqzwjwe,itc,4976.0,79.0,80.0,79.0,0,07/13/2020
157,15641,21,21,7,bkvnluqzwjwe,itc,5068.0,5.0,55.0,244.0,1,07/13/2020
158,15642,23,23,7,bkvnluqzwjwe,itc,3395.0,20.0,25.0,100.0,1,07/13/2020
159,15643,25,25,7,bkvnluqzwjwe,itc,3586.0,49.0,50.0,51.0,0,07/13/2020
160,15644,27,27,7,bkvnluqzwjwe,itc,1727.0,43.0,75.0,124.0,1,07/13/2020
161,15645,29,29,7,bkvnluqzwjwe,itc,1772.0,20.0,60.0,125.0,1,07/13/2020
162,15646,31,31,7,bkvnluqzwjwe,itc,4580.0,24.0,25.0,260.0,0,07/13/2020
163,15647,33,33,7,bkvnluqzwjwe,itc,1418.0,10.0,35.0,10.0,1,07/13/2020
164,15648,35,35,7,bkvnluqzwjwe,itc,7971.0,46.0,50.0,87.0,0,07/13/2020
165,15649,37,37,7,bkvnluqzwjwe,itc,1426.0,10.0,35.0,61.0,1,07/13/2020
166,15650,39,39,7,bkvnluqzwjwe,itc,1676.0,31.0,55.0,129.0,1,07/13/2020
167,15651,41,41,7,bkvnluqzwjwe,itc,7120.0,32.0,75.0,84.0,1,07/13/2020
168,15652,43,43,7,bkvnluqzwjwe,itc,1611.0,20.0,85.0,13.0,1,07/13/2020
169,15653,45,45,7,bkvnluqzwjwe,itc,4136.0,34.0,80.0,33.0,1,07/13/2020
170,15654,47,47,7,bkvnluqzwjwe,itc,3272.0,54.0,55.0,116.0,0,07/13/2020
171,15655,49,49,7,bkvnluqzwjwe,itc,3343.0,23.0,25.0,87.0,0,07/13/2020
172,15656,51,51,7,bkvnluqzwjwe,itc,3817.0,11.0,30.0,108.0,1,07/13/2020
173,15657,53,53,7,bkvnluqzwjwe,itc,1819.0,15.0,30.0,10.0,1,07/13/2020
174,15658,55,55,7,bkvnluqzwjwe,itc,4265.0,29.0,30.0,86.0,0,07/13/2020
175,15659,57,57,7,bkvnluqzwjwe,itc,1420.0,64.0,80.0,100.0,1,07/13/2020
176,18009,5,5,8,bkvnluqzwjwe,itc,9197.0,23.0,35.0,87.0,1,07/13/2020
177,18010,7,7,8,bkvnluqzwjwe,itc,4714.0,58.0,60.0,86.0,0,07/13/2020
178,18011,9,9,8,bkvnluqzwjwe,itc,1907.0,5.0,30.0,122.0,1,07/13/2020
179,18012,11,11,8,bkvnluqzwjwe,itc,2103.0,24.0,25.0,260.0,0,07/13/2020
180,18013,13,13,8,bkvnluqzwjwe,itc,9031.0,28.0,35.0,100.0,0,07/13/2020
181,18014,15,15,8,bkvnluqzwjwe,itc,2385.0,29.0,30.0,86.0,0,07/13/2020
182,18015,17,17,8,bkvnluqzwjwe,itc,3508.0,31.0,35.0,129.0,0,07/13/2020
183,18016,19,19,8,bkvnluqzwjwe,itc,2090.0,25.0,75.0,8.0,1,07/13/2020
184,18017,21,21,8,bkvnluqzwjwe,itc,1512.0,20.0,60.0,125.0,1,07/13/2020
185,18018,23,23,8,bkvnluqzwjwe,itc,2657.0,49.0,50.0,127.0,0,07/13/2020
186,18019,25,25,8,bkvnluqzwjwe,itc,1743.0,40.0,80.0,10.0,1,07/13/2020
187,18020,27,27,8,bkvnluqzwjwe,itc,1449.0,20.0,55.0,7.0,1,07/13/2020
188,18022,31,31,8,bkvnluqzwjwe,itc,2904.0,11.0,30.0,108.0,1,07/13/2020
189,18023,33,33,8,bkvnluqzwjwe,itc,1796.0,30.0,60.0,10.0,1,07/13/2020
190,18024,35,35,8,bkvnluqzwjwe,itc,2861.0,72.0,75.0,104.0,0,07/13/2020
191,18025,37,37,8,bkvnluqzwjwe,itc,1138.0,34.0,80.0,33.0,1,07/13/2020
192,18026,39,39,8,bkvnluqzwjwe,itc,1186.0,8.0,50.0,128.0,1,07/13/2020
193,18027,41,41,8,bkvnluqzwjwe,itc,3592.0,50.0,55.0,100.0,0,07/13/2020
194,18028,43,43,8,bkvnluqzwjwe,itc,4322.0,64.0,80.0,100.0,1,07/13/2020
195,18029,45,45,8,bkvnluqzwjwe,itc,2199.0,82.0,85.0,229.0,0,07/13/2020
196,18030,47,47,8,bkvnluqzwjwe,itc,1576.0,46.0,85.0,53.0,1,07/13/2020
197,18031,49,49,8,bkvnluqzwjwe,itc,1997.0,10.0,25.0,15.0,1,07/13/2020
198,18032,51,51,8,bkvnluqzwjwe,itc,1461.0,5.0,25.0,16.0,1,07/13/2020
199,18033,53,53,8,bkvnluqzwjwe,itc,6701.0,50.0,55.0,40.0,1,07/13/2020
200,18034,55,55,8,bkvnluqzwjwe,itc,2077.0,34.0,85.0,250.0,1,07/13/2020
201,18035,57,57,8,bkvnluqzwjwe,itc,2484.0,39.0,50.0,47.0,1,07/13/2020
202,20439,5,5,9,bkvnluqzwjwe,itc,6314.0,5.0,25.0,16.0,1,07/13/2020
203,20440,7,7,9,bkvnluqzwjwe,itc,3977.0,46.0,50.0,87.0,0,07/13/2020
204,20441,9,9,9,bkvnluqzwjwe,itc,1879.0,50.0,60.0,80.0,1,07/13/2020
205,20442,11,11,9,bkvnluqzwjwe,itc,2021.0,11.0,30.0,108.0,1,07/13/2020
206,20443,13,13,9,bkvnluqzwjwe,itc,6390.0,78.0,80.0,64.0,0,07/13/2020
207,20444,15,15,9,bkvnluqzwjwe,itc,1256.0,25.0,55.0,12.0,1,07/13/2020
208,20445,17,17,9,bkvnluqzwjwe,itc,1731.0,10.0,25.0,15.0,1,07/13/2020
209,20446,19,19,9,bkvnluqzwjwe,itc,3168.0,82.0,85.0,229.0,0,07/13/2020
210,20447,21,21,9,bkvnluqzwjwe,itc,1911.0,32.0,75.0,84.0,1,07/13/2020
211,20448,23,23,9,bkvnluqzwjwe,itc,2830.0,52.0,55.0,144.0,0,07/13/2020
212,20449,25,25,9,bkvnluqzwjwe,itc,1255.0,31.0,55.0,129.0,1,07/13/2020
213,20451,29,29,9,bkvnluqzwjwe,itc,2885.0,50.0,80.0,100.0,1,07/13/2020
214,20452,31,31,9,bkvnluqzwjwe,itc,1652.0,25.0,75.0,8.0,1,07/13/2020
215,20453,33,33,9,bkvnluqzwjwe,itc,1492.0,20.0,60.0,125.0,1,07/13/2020
216,20454,35,35,9,bkvnluqzwjwe,itc,2770.0,29.0,30.0,215.0,0,07/13/2020
217,20456,39,39,9,bkvnluqzwjwe,itc,1215.0,40.0,80.0,10.0,1,07/13/2020
218,20457,41,41,9,bkvnluqzwjwe,itc,2861.0,49.0,50.0,127.0,0,07/13/2020
219,20459,45,45,9,bkvnluqzwjwe,itc,4263.0,80.0,85.0,25.0,1,07/13/2020
220,20460,47,47,9,bkvnluqzwjwe,itc,1766.0,20.0,60.0,8.0,1,07/13/2020
221,20461,49,49,9,bkvnluqzwjwe,itc,2233.0,8.0,50.0,128.0,1,07/13/2020
222,20462,51,51,9,bkvnluqzwjwe,itc,3870.0,23.0,35.0,87.0,1,07/13/2020
223,20463,53,53,9,bkvnluqzwjwe,itc,3061.0,54.0,85.0,14.0,1,07/13/2020
224,20464,55,55,9,bkvnluqzwjwe,itc,1809.0,10.0,35.0,61.0,1,07/13/2020
225,20465,57,57,9,bkvnluqzwjwe,itc,3063.0,27.0,30.0,111.0,0,07/13/2020
226,22923,5,5,10,bkvnluqzwjwe,itc,7073.0,10.0,35.0,61.0,1,07/13/2020
227,22924,7,7,10,bkvnluqzwjwe,itc,2354.0,10.0,25.0,15.0,1,07/13/2020
228,22925,9,9,10,bkvnluqzwjwe,itc,4224.0,34.0,80.0,33.0,1,07/13/2020
229,22926,11,11,10,bkvnluqzwjwe,itc,2605.0,24.0,25.0,260.0,0,07/13/2020
230,22928,15,15,10,bkvnluqzwjwe,itc,7715.0,77.0,80.0,39.0,0,07/13/2020
231,22929,17,17,10,bkvnluqzwjwe,itc,3148.0,82.0,85.0,229.0,0,07/13/2020
232,22930,19,19,10,bkvnluqzwjwe,itc,4489.0,29.0,30.0,86.0,0,07/13/2020
233,22931,21,21,10,bkvnluqzwjwe,itc,2000.0,34.0,85.0,250.0,1,07/13/2020
234,22932,23,23,10,bkvnluqzwjwe,itc,3234.0,23.0,25.0,87.0,0,07/13/2020
235,22933,25,25,10,bkvnluqzwjwe,itc,1674.0,32.0,75.0,84.0,1,07/13/2020
236,22934,27,27,10,bkvnluqzwjwe,itc,2297.0,10.0,35.0,10.0,1,07/13/2020
237,22935,29,29,10,bkvnluqzwjwe,itc,3129.0,52.0,55.0,144.0,0,07/13/2020
238,22936,31,31,10,bkvnluqzwjwe,itc,2269.0,23.0,35.0,87.0,1,07/13/2020
239,22937,33,33,10,bkvnluqzwjwe,itc,3875.0,72.0,75.0,104.0,0,07/13/2020
240,22938,35,35,10,bkvnluqzwjwe,itc,1434.0,20.0,60.0,125.0,1,07/13/2020
241,22939,37,37,10,bkvnluqzwjwe,itc,2730.0,50.0,85.0,7.0,1,07/13/2020
242,22940,39,39,10,bkvnluqzwjwe,itc,1649.0,64.0,80.0,100.0,1,07/13/2020
243,22941,41,41,10,bkvnluqzwjwe,itc,1711.0,30.0,60.0,10.0,1,07/13/2020
244,22942,43,43,10,bkvnluqzwjwe,itc,1817.0,8.0,50.0,128.0,1,07/13/2020
245,22943,45,45,10,bkvnluqzwjwe,itc,2542.0,49.0,50.0,127.0,0,07/13/2020
246,22944,47,47,10,bkvnluqzwjwe,itc,1482.0,20.0,55.0,7.0,1,07/13/2020
247,22945,49,49,10,bkvnluqzwjwe,itc,1557.0,25.0,75.0,8.0,1,07/13/2020
248,22946,51,51,10,bkvnluqzwjwe,itc,2099.0,11.0,30.0,108.0,1,07/13/2020
249,22947,53,53,10,bkvnluqzwjwe,itc,2453.0,39.0,50.0,47.0,1,07/13/2020
250,22948,55,55,10,bkvnluqzwjwe,itc,4536.0,50.0,55.0,40.0,1,07/13/2020
251,22949,57,57,10,bkvnluqzwjwe,itc,8910.0,59.0,60.0,17.0,0,07/13/2020
252,25272,5,5,11,bkvnluqzwjwe,itc,9403.0,8.0,50.0,128.0,1,07/13/2020
253,25273,7,7,11,bkvnluqzwjwe,itc,4230.0,24.0,25.0,104.0,0,07/13/2020
254,25274,9,9,11,bkvnluqzwjwe,itc,3506.0,20.0,60.0,125.0,1,07/13/2020
255,25275,11,11,11,bkvnluqzwjwe,itc,5574.0,24.0,25.0,260.0,0,07/13/2020
256,25276,13,13,11,bkvnluqzwjwe,itc,1693.0,10.0,35.0,61.0,1,07/13/2020
257,25277,15,15,11,bkvnluqzwjwe,itc,7844.0,46.0,50.0,87.0,0,07/13/2020
258,25278,17,17,11,bkvnluqzwjwe,itc,3982.0,31.0,35.0,129.0,0,07/13/2020
259,25279,19,19,11,bkvnluqzwjwe,itc,2092.0,20.0,85.0,13.0,1,07/13/2020
260,25280,21,21,11,bkvnluqzwjwe,itc,3957.0,52.0,55.0,144.0,0,07/13/2020
261,25281,23,23,11,bkvnluqzwjwe,itc,2457.0,32.0,75.0,84.0,1,07/13/2020
262,25282,25,25,11,bkvnluqzwjwe,itc,1933.0,15.0,30.0,10.0,1,07/13/2020
263,25283,27,27,11,bkvnluqzwjwe,itc,2118.0,50.0,80.0,100.0,1,07/13/2020
264,25284,29,29,11,bkvnluqzwjwe,itc,2757.0,79.0,80.0,79.0,0,07/13/2020
265,25285,31,31,11,bkvnluqzwjwe,itc,3617.0,64.0,80.0,100.0,1,07/13/2020
266,25286,33,33,11,bkvnluqzwjwe,itc,5271.0,11.0,30.0,108.0,1,07/13/2020
267,25287,35,35,11,bkvnluqzwjwe,itc,5427.0,49.0,50.0,127.0,0,07/13/2020
268,25288,37,37,11,bkvnluqzwjwe,itc,4788.0,14.0,25.0,131.0,1,07/13/2020
269,25290,41,41,11,bkvnluqzwjwe,itc,3238.0,53.0,60.0,22.0,1,07/13/2020
270,25291,43,43,11,bkvnluqzwjwe,itc,1922.0,25.0,55.0,12.0,1,07/13/2020
271,25292,45,45,11,bkvnluqzwjwe,itc,1806.0,50.0,85.0,7.0,1,07/13/2020
272,25293,47,47,11,bkvnluqzwjwe,itc,4119.0,72.0,75.0,104.0,0,07/13/2020
273,25294,49,49,11,bkvnluqzwjwe,itc,9540.0,50.0,55.0,40.0,1,07/13/2020
274,25296,53,53,11,bkvnluqzwjwe,itc,1460.0,20.0,60.0,8.0,1,07/13/2020
275,25297,55,55,11,bkvnluqzwjwe,itc,2185.0,10.0,35.0,10.0,1,07/13/2020
276,25298,57,57,11,bkvnluqzwjwe,itc,1468.0,54.0,85.0,14.0,1,07/13/2020
277,27568,7,7,12,bkvnluqzwjwe,itc,3182.0,25.0,75.0,8.0,1,07/13/2020
278,27569,9,9,12,bkvnluqzwjwe,itc,3532.0,34.0,85.0,250.0,1,07/13/2020
279,27570,11,11,12,bkvnluqzwjwe,itc,3510.0,25.0,50.0,10.0,1,07/13/2020
280,27571,13,13,12,bkvnluqzwjwe,itc,7445.0,28.0,35.0,100.0,1,07/13/2020
281,27572,15,15,12,bkvnluqzwjwe,itc,2581.0,24.0,25.0,260.0,0,07/13/2020
282,27573,17,17,12,bkvnluqzwjwe,itc,2134.0,23.0,35.0,87.0,1,07/13/2020
283,27574,19,19,12,bkvnluqzwjwe,itc,3687.0,78.0,80.0,64.0,0,07/13/2020
284,27575,21,21,12,bkvnluqzwjwe,itc,3542.0,58.0,60.0,86.0,0,07/13/2020
285,27576,23,23,12,bkvnluqzwjwe,itc,3412.0,6.0,25.0,198.0,1,07/13/2020
286,27577,25,25,12,bkvnluqzwjwe,itc,2843.0,12.0,75.0,128.0,1,07/13/2020
287,27578,27,27,12,bkvnluqzwjwe,itc,1521.0,5.0,30.0,122.0,1,07/13/2020
288,27579,29,29,12,bkvnluqzwjwe,itc,4305.0,50.0,60.0,80.0,1,07/13/2020
289,27580,31,31,12,bkvnluqzwjwe,itc,1506.0,30.0,75.0,15.0,1,07/13/2020
290,27581,33,33,12,bkvnluqzwjwe,itc,5050.0,27.0,30.0,111.0,0,07/13/2020
291,27582,35,35,12,bkvnluqzwjwe,itc,2485.0,20.0,60.0,8.0,1,07/13/2020
292,27583,37,37,12,bkvnluqzwjwe,itc,3104.0,82.0,85.0,229.0,0,07/13/2020
293,27584,39,39,12,bkvnluqzwjwe,itc,1600.0,25.0,55.0,75.0,1,07/13/2020
294,27585,41,41,12,bkvnluqzwjwe,itc,1546.0,5.0,25.0,16.0,1,07/13/2020
295,27586,43,43,12,bkvnluqzwjwe,itc,1683.0,5.0,55.0,244.0,1,07/13/2020
296,27588,47,47,12,bkvnluqzwjwe,itc,2279.0,80.0,85.0,25.0,1,07/13/2020
297,27589,49,49,12,bkvnluqzwjwe,itc,6776.0,77.0,80.0,39.0,1,07/13/2020
298,27590,51,51,12,bkvnluqzwjwe,itc,1526.0,33.0,80.0,89.0,1,07/13/2020
299,27591,53,53,12,bkvnluqzwjwe,itc,1355.0,14.0,35.0,15.0,1,07/13/2020
300,27592,55,55,12,bkvnluqzwjwe,itc,2095.0,31.0,55.0,129.0,1,07/13/2020
301,27593,57,57,12,bkvnluqzwjwe,itc,3564.0,49.0,50.0,127.0,0,07/13/2020
302,27,5,5,1,bprekwckiqdd,itc,6325.0,5.0,30.0,122.0,1,07/13/2020
303,28,7,7,1,bprekwckiqdd,itc,2478.0,6.0,25.0,198.0,1,07/13/2020
304,29,9,9,1,bprekwckiqdd,itc,2098.0,10.0,50.0,16.0,1,07/13/2020
305,30,11,11,1,bprekwckiqdd,itc,3328.0,58.0,60.0,86.0,0,07/13/2020
306,31,13,13,1,bprekwckiqdd,itc,4037.0,60.0,75.0,100.0,0,07/13/2020
307,32,15,15,1,bprekwckiqdd,itc,2579.0,20.0,85.0,13.0,1,07/13/2020
308,33,17,17,1,bprekwckiqdd,itc,2461.0,54.0,55.0,116.0,0,07/13/2020
309,34,19,19,1,bprekwckiqdd,itc,1847.0,25.0,55.0,75.0,1,07/13/2020
310,35,21,21,1,bprekwckiqdd,itc,1325.0,10.0,30.0,8.0,1,07/13/2020
311,36,23,23,1,bprekwckiqdd,itc,3817.0,69.0,75.0,87.0,0,07/13/2020
312,37,25,25,1,bprekwckiqdd,itc,1797.0,50.0,80.0,100.0,1,07/13/2020
313,38,27,27,1,bprekwckiqdd,itc,2796.0,32.0,35.0,234.0,0,07/13/2020
314,39,29,29,1,bprekwckiqdd,itc,4572.0,13.0,30.0,218.0,1,07/13/2020
315,40,31,31,1,bprekwckiqdd,itc,3251.0,28.0,35.0,100.0,0,07/13/2020
316,41,33,33,1,bprekwckiqdd,itc,1745.0,25.0,55.0,12.0,1,07/13/2020
317,43,37,37,1,bprekwckiqdd,itc,1736.0,10.0,25.0,15.0,1,07/13/2020
318,44,39,39,1,bprekwckiqdd,itc,1766.0,50.0,85.0,7.0,1,07/13/2020
319,45,41,41,1,bprekwckiqdd,itc,2177.0,24.0,25.0,260.0,0,07/13/2020
320,46,43,43,1,bprekwckiqdd,itc,2038.0,50.0,60.0,80.0,0,07/13/2020
321,47,45,45,1,bprekwckiqdd,itc,1972.0,31.0,35.0,129.0,0,07/13/2020
322,48,47,47,1,bprekwckiqdd,itc,1478.0,79.0,80.0,79.0,0,07/13/2020
323,49,49,49,1,bprekwckiqdd,itc,2439.0,33.0,80.0,89.0,1,07/13/2020
324,50,51,51,1,bprekwckiqdd,itc,2958.0,39.0,50.0,47.0,1,07/13/2020
325,51,53,53,1,bprekwckiqdd,itc,3923.0,79.0,85.0,190.0,0,07/13/2020
326,52,55,55,1,bprekwckiqdd,itc,1321.0,12.0,75.0,128.0,1,07/13/2020
327,53,57,57,1,bprekwckiqdd,itc,1198.0,10.0,60.0,122.0,1,07/13/2020
328,2862,5,5,2,bprekwckiqdd,itc,5554.0,28.0,35.0,100.0,1,07/13/2020
329,2863,7,7,2,bprekwckiqdd,itc,1607.0,30.0,75.0,15.0,1,07/13/2020
330,2864,9,9,2,bprekwckiqdd,itc,1658.0,33.0,80.0,89.0,1,07/13/2020
331,2865,11,11,2,bprekwckiqdd,itc,2279.0,79.0,85.0,190.0,0,07/13/2020
332,2866,13,13,2,bprekwckiqdd,itc,1260.0,5.0,30.0,122.0,1,07/13/2020
333,2867,15,15,2,bprekwckiqdd,itc,1854.0,50.0,55.0,100.0,0,07/13/2020
334,2868,17,17,2,bprekwckiqdd,itc,1530.0,10.0,50.0,16.0,1,07/13/2020
335,2869,19,19,2,bprekwckiqdd,itc,1576.0,10.0,25.0,15.0,1,07/13/2020
336,2870,21,21,2,bprekwckiqdd,itc,3508.0,64.0,80.0,100.0,1,07/13/2020
337,2871,23,23,2,bprekwckiqdd,itc,1009.0,30.0,60.0,10.0,1,07/13/2020
338,2872,25,25,2,bprekwckiqdd,itc,3069.0,40.0,50.0,100.0,0,07/13/2020
339,2873,27,27,2,bprekwckiqdd,itc,1342.0,20.0,60.0,125.0,1,07/13/2020
340,2874,29,29,2,bprekwckiqdd,itc,1650.0,20.0,85.0,13.0,1,07/13/2020
341,2875,31,31,2,bprekwckiqdd,itc,2090.0,23.0,35.0,87.0,1,07/13/2020
342,2876,33,33,2,bprekwckiqdd,itc,1588.0,10.0,30.0,8.0,1,07/13/2020
343,2877,35,35,2,bprekwckiqdd,itc,2131.0,73.0,75.0,171.0,0,07/13/2020
344,2878,37,37,2,bprekwckiqdd,itc,2234.0,5.0,55.0,244.0,1,07/13/2020
345,2879,39,39,2,bprekwckiqdd,itc,2231.0,43.0,75.0,124.0,1,07/13/2020
346,2880,41,41,2,bprekwckiqdd,itc,1227.0,49.0,50.0,51.0,0,07/13/2020
347,2881,43,43,2,bprekwckiqdd,itc,1344.0,34.0,80.0,33.0,1,07/13/2020
348,2882,45,45,2,bprekwckiqdd,itc,1275.0,23.0,25.0,87.0,0,07/13/2020
349,2883,47,47,2,bprekwckiqdd,itc,1100.0,24.0,25.0,104.0,0,07/13/2020
350,2884,49,49,2,bprekwckiqdd,itc,2757.0,59.0,60.0,106.0,0,07/13/2020
351,2885,51,51,2,bprekwckiqdd,itc,1555.0,29.0,30.0,215.0,0,07/13/2020
352,2886,53,53,2,bprekwckiqdd,itc,1687.0,31.0,55.0,129.0,1,07/13/2020
353,2887,55,55,2,bprekwckiqdd,itc,1231.0,79.0,85.0,76.0,0,07/13/2020
354,2888,57,57,2,bprekwckiqdd,itc,2166.0,25.0,35.0,25.0,1,07/13/2020
355,5562,5,5,3,bprekwckiqdd,itc,5425.0,23.0,25.0,87.0,0,07/13/2020
356,5563,7,7,3,bprekwckiqdd,itc,1797.0,78.0,80.0,64.0,0,07/13/2020
357,5564,9,9,3,bprekwckiqdd,itc,2727.0,39.0,50.0,47.0,1,07/13/2020
358,5565,11,11,3,bprekwckiqdd,itc,1359.0,10.0,30.0,8.0,1,07/13/2020
359,5566,13,13,3,bprekwckiqdd,itc,2105.0,58.0,60.0,86.0,0,07/13/2020
360,5567,15,15,3,bprekwckiqdd,itc,1303.0,10.0,25.0,15.0,1,07/13/2020
361,5568,17,17,3,bprekwckiqdd,itc,2363.0,10.0,50.0,16.0,1,07/13/2020
362,5569,19,19,3,bprekwckiqdd,itc,2330.0,46.0,50.0,87.0,0,07/13/2020
363,5570,21,21,3,bprekwckiqdd,itc,2477.0,73.0,75.0,171.0,0,07/13/2020
364,5571,23,23,3,bprekwckiqdd,itc,2831.0,79.0,85.0,76.0,0,07/13/2020
365,5572,25,25,3,bprekwckiqdd,itc,1067.0,11.0,30.0,108.0,1,07/13/2020
366,5573,27,27,3,bprekwckiqdd,itc,1559.0,25.0,55.0,12.0,1,07/13/2020
367,5574,29,29,3,bprekwckiqdd,itc,3398.0,24.0,25.0,260.0,0,07/13/2020
368,5575,31,31,3,bprekwckiqdd,itc,1285.0,59.0,60.0,106.0,0,07/13/2020
369,5576,33,33,3,bprekwckiqdd,itc,1419.0,30.0,75.0,15.0,1,07/13/2020
370,5577,35,35,3,bprekwckiqdd,itc,1800.0,33.0,80.0,89.0,1,07/13/2020
371,5578,37,37,3,bprekwckiqdd,itc,2018.0,25.0,75.0,8.0,1,07/13/2020
372,5579,39,39,3,bprekwckiqdd,itc,1485.0,80.0,85.0,25.0,0,07/13/2020
373,5580,41,41,3,bprekwckiqdd,itc,1562.0,29.0,30.0,86.0,0,07/13/2020
374,5581,43,43,3,bprekwckiqdd,itc,2167.0,28.0,35.0,100.0,0,07/13/2020
375,5582,45,45,3,bprekwckiqdd,itc,1248.0,5.0,55.0,244.0,1,07/13/2020
376,5583,47,47,3,bprekwckiqdd,itc,1942.0,50.0,55.0,40.0,0,07/13/2020
377,5584,49,49,3,bprekwckiqdd,itc,1665.0,10.0,35.0,61.0,1,07/13/2020
378,5585,51,51,3,bprekwckiqdd,itc,1329.0,54.0,85.0,14.0,1,07/13/2020
379,5586,53,53,3,bprekwckiqdd,itc,1697.0,20.0,60.0,125.0,1,07/13/2020
380,5587,55,55,3,bprekwckiqdd,itc,4685.0,23.0,35.0,87.0,1,07/13/2020
381,5588,57,57,3,bprekwckiqdd,itc,2210.0,50.0,80.0,100.0,1,07/13/2020
382,8181,5,5,4,bprekwckiqdd,itc,7983.0,25.0,35.0,25.0,1,07/13/2020
383,8182,7,7,4,bprekwckiqdd,itc,2121.0,10.0,25.0,15.0,1,07/13/2020
384,8183,9,9,4,bprekwckiqdd,itc,1781.0,32.0,75.0,84.0,1,07/13/2020
385,8184,11,11,4,bprekwckiqdd,itc,1314.0,10.0,35.0,10.0,1,07/13/2020
386,8185,13,13,4,bprekwckiqdd,itc,2194.0,29.0,30.0,215.0,0,07/13/2020
387,8186,15,15,4,bprekwckiqdd,itc,4628.0,23.0,35.0,87.0,1,07/13/2020
388,8187,17,17,4,bprekwckiqdd,itc,3799.0,52.0,55.0,144.0,0,07/13/2020
389,8188,19,19,4,bprekwckiqdd,itc,5613.0,64.0,80.0,100.0,1,07/13/2020
390,8189,21,21,4,bprekwckiqdd,itc,2372.0,40.0,80.0,10.0,1,07/13/2020
391,8190,23,23,4,bprekwckiqdd,itc,2296.0,27.0,30.0,111.0,0,07/13/2020
392,8191,25,25,4,bprekwckiqdd,itc,2018.0,30.0,60.0,10.0,1,07/13/2020
393,8192,27,27,4,bprekwckiqdd,itc,1523.0,25.0,55.0,75.0,1,07/13/2020
394,8193,29,29,4,bprekwckiqdd,itc,1709.0,24.0,25.0,104.0,0,07/13/2020
395,8194,31,31,4,bprekwckiqdd,itc,2497.0,82.0,85.0,229.0,0,07/13/2020
396,8195,33,33,4,bprekwckiqdd,itc,2796.0,25.0,30.0,80.0,0,07/13/2020
397,8196,35,35,4,bprekwckiqdd,itc,1966.0,12.0,75.0,128.0,1,07/13/2020
398,8197,37,37,4,bprekwckiqdd,itc,4115.0,39.0,50.0,47.0,1,07/13/2020
399,8198,39,39,4,bprekwckiqdd,itc,2195.0,79.0,85.0,190.0,0,07/13/2020
400,8199,41,41,4,bprekwckiqdd,itc,1471.0,50.0,80.0,100.0,1,07/13/2020
401,8200,43,43,4,bprekwckiqdd,itc,2920.0,4.0,25.0,128.0,1,07/13/2020
402,8201,45,45,4,bprekwckiqdd,itc,1495.0,69.0,75.0,87.0,0,07/13/2020
403,8202,47,47,4,bprekwckiqdd,itc,2962.0,50.0,60.0,80.0,1,07/13/2020
404,8203,49,49,4,bprekwckiqdd,itc,2876.0,50.0,55.0,100.0,0,07/13/2020
405,8204,51,51,4,bprekwckiqdd,itc,1261.0,20.0,85.0,13.0,1,07/13/2020
406,8205,53,53,4,bprekwckiqdd,itc,2120.0,49.0,50.0,127.0,0,07/13/2020
407,8206,55,55,4,bprekwckiqdd,itc,1755.0,10.0,50.0,16.0,1,07/13/2020
408,8207,57,57,4,bprekwckiqdd,itc,1607.0,10.0,60.0,122.0,1,07/13/2020
409,10719,5,5,5,bprekwckiqdd,itc,7141.0,50.0,60.0,80.0,0,07/13/2020
410,10720,7,7,5,bprekwckiqdd,itc,2150.0,33.0,80.0,89.0,1,07/13/2020
411,10721,9,9,5,bprekwckiqdd,itc,2905.0,60.0,75.0,100.0,0,07/13/2020
412,10722,11,11,5,bprekwckiqdd,itc,1436.0,5.0,30.0,122.0,1,07/13/2020
413,10723,13,13,5,bprekwckiqdd,itc,1570.0,54.0,85.0,14.0,1,07/13/2020
414,10724,15,15,5,bprekwckiqdd,itc,1470.0,5.0,55.0,244.0,1,07/13/2020
415,10725,17,17,5,bprekwckiqdd,itc,1886.0,5.0,25.0,16.0,1,07/13/2020
416,10726,19,19,5,bprekwckiqdd,itc,1445.0,40.0,80.0,10.0,1,07/13/2020
417,10727,21,21,5,bprekwckiqdd,itc,1408.0,59.0,60.0,17.0,1,07/13/2020
418,10728,23,23,5,bprekwckiqdd,itc,1218.0,15.0,30.0,10.0,1,07/13/2020
419,10729,25,25,5,bprekwckiqdd,itc,1655.0,49.0,50.0,127.0,0,07/13/2020
420,10730,27,27,5,bprekwckiqdd,itc,1787.0,69.0,75.0,87.0,0,07/13/2020
421,10731,29,29,5,bprekwckiqdd,itc,2199.0,28.0,35.0,100.0,0,07/13/2020
422,10732,31,31,5,bprekwckiqdd,itc,1477.0,20.0,55.0,7.0,1,07/13/2020
423,10733,33,33,5,bprekwckiqdd,itc,1649.0,73.0,75.0,171.0,0,07/13/2020
424,10734,35,35,5,bprekwckiqdd,itc,1590.0,23.0,35.0,87.0,0,07/13/2020
425,10735,37,37,5,bprekwckiqdd,itc,1895.0,25.0,35.0,25.0,0,07/13/2020
426,10736,39,39,5,bprekwckiqdd,itc,1581.0,24.0,25.0,104.0,0,07/13/2020
427,10737,41,41,5,bprekwckiqdd,itc,1318.0,20.0,85.0,13.0,1,07/13/2020
428,10738,43,43,5,bprekwckiqdd,itc,1352.0,58.0,60.0,86.0,0,07/13/2020
429,10739,45,45,5,bprekwckiqdd,itc,4013.0,39.0,50.0,47.0,1,07/13/2020
430,10740,47,47,5,bprekwckiqdd,itc,1157.0,34.0,85.0,250.0,1,07/13/2020
431,10741,49,49,5,bprekwckiqdd,itc,1532.0,25.0,50.0,10.0,1,07/13/2020
432,10742,51,51,5,bprekwckiqdd,itc,1464.0,78.0,80.0,64.0,0,07/13/2020
433,10743,53,53,5,bprekwckiqdd,itc,1769.0,23.0,25.0,87.0,0,07/13/2020
434,10744,55,55,5,bprekwckiqdd,itc,1615.0,25.0,55.0,75.0,1,07/13/2020
435,10745,57,57,5,bprekwckiqdd,itc,6147.0,29.0,30.0,215.0,0,07/13/2020
436,13257,5,5,6,bprekwckiqdd,itc,4381.0,32.0,75.0,84.0,1,07/13/2020
437,13258,7,7,6,bprekwckiqdd,itc,1713.0,25.0,75.0,8.0,1,07/13/2020
438,13259,9,9,6,bprekwckiqdd,itc,2943.0,50.0,60.0,80.0,0,07/13/2020
439,13260,11,11,6,bprekwckiqdd,itc,1151.0,6.0,25.0,198.0,1,07/13/2020
440,13261,13,13,6,bprekwckiqdd,itc,1389.0,78.0,80.0,64.0,0,07/13/2020
441,13262,15,15,6,bprekwckiqdd,itc,1682.0,49.0,50.0,51.0,0,07/13/2020
442,13263,17,17,6,bprekwckiqdd,itc,1675.0,10.0,30.0,8.0,1,07/13/2020
443,13264,19,19,6,bprekwckiqdd,itc,1417.0,5.0,55.0,244.0,1,07/13/2020
444,13265,21,21,6,bprekwckiqdd,itc,3249.0,25.0,30.0,80.0,1,07/13/2020
445,13266,23,23,6,bprekwckiqdd,itc,2933.0,30.0,60.0,10.0,1,07/13/2020
446,13267,25,25,6,bprekwckiqdd,itc,2352.0,31.0,35.0,129.0,0,07/13/2020
447,13268,27,27,6,bprekwckiqdd,itc,4664.0,60.0,75.0,100.0,0,07/13/2020
448,13269,29,29,6,bprekwckiqdd,itc,1088.0,50.0,80.0,100.0,1,07/13/2020
449,13270,31,31,6,bprekwckiqdd,itc,1603.0,54.0,85.0,14.0,1,07/13/2020
450,13271,33,33,6,bprekwckiqdd,itc,1021.0,20.0,55.0,7.0,1,07/13/2020
451,13272,35,35,6,bprekwckiqdd,itc,1177.0,14.0,35.0,15.0,1,07/13/2020
452,13273,37,37,6,bprekwckiqdd,itc,1748.0,82.0,85.0,229.0,0,07/13/2020
453,13274,39,39,6,bprekwckiqdd,itc,1242.0,40.0,80.0,10.0,1,07/13/2020
454,13275,41,41,6,bprekwckiqdd,itc,1655.0,50.0,55.0,100.0,0,07/13/2020
455,13276,43,43,6,bprekwckiqdd,itc,1800.0,24.0,25.0,104.0,0,07/13/2020
456,13277,45,45,6,bprekwckiqdd,itc,1017.0,5.0,30.0,122.0,1,07/13/2020
457,13278,47,47,6,bprekwckiqdd,itc,1770.0,39.0,50.0,47.0,1,07/13/2020
458,13279,49,49,6,bprekwckiqdd,itc,1389.0,24.0,25.0,260.0,0,07/13/2020
459,13280,51,51,6,bprekwckiqdd,itc,2130.0,79.0,85.0,76.0,0,07/13/2020
460,13281,53,53,6,bprekwckiqdd,itc,1387.0,49.0,50.0,127.0,0,07/13/2020
461,13282,55,55,6,bprekwckiqdd,itc,1074.0,20.0,60.0,125.0,1,07/13/2020
462,13283,57,57,6,bprekwckiqdd,itc,1527.0,23.0,35.0,87.0,1,07/13/2020
463,15660,5,5,7,bprekwckiqdd,itc,4960.0,30.0,75.0,15.0,1,07/13/2020
464,15661,7,7,7,bprekwckiqdd,itc,1389.0,12.0,75.0,128.0,1,07/13/2020
465,15662,9,9,7,bprekwckiqdd,itc,2521.0,23.0,35.0,87.0,1,07/13/2020
466,15663,11,11,7,bprekwckiqdd,itc,6286.0,31.0,35.0,129.0,1,07/13/2020
467,15664,13,13,7,bprekwckiqdd,itc,1754.0,5.0,55.0,244.0,1,07/13/2020
468,15665,15,15,7,bprekwckiqdd,itc,2110.0,29.0,30.0,215.0,0,07/13/2020
469,15666,17,17,7,bprekwckiqdd,itc,1005.0,25.0,55.0,75.0,1,07/13/2020
470,15667,19,19,7,bprekwckiqdd,itc,1557.0,20.0,25.0,100.0,1,07/13/2020
471,15668,21,21,7,bprekwckiqdd,itc,1099.0,64.0,80.0,100.0,1,07/13/2020
472,15669,23,23,7,bprekwckiqdd,itc,2304.0,46.0,50.0,87.0,0,07/13/2020
473,15670,25,25,7,bprekwckiqdd,itc,1145.0,79.0,85.0,76.0,1,07/13/2020
474,15671,27,27,7,bprekwckiqdd,itc,1257.0,46.0,85.0,53.0,1,07/13/2020
475,15672,29,29,7,bprekwckiqdd,itc,2166.0,24.0,25.0,104.0,0,07/13/2020
476,15673,31,31,7,bprekwckiqdd,itc,1493.0,49.0,50.0,127.0,0,07/13/2020
477,15674,33,33,7,bprekwckiqdd,itc,1503.0,78.0,80.0,64.0,0,07/13/2020
478,15675,35,35,7,bprekwckiqdd,itc,1160.0,73.0,75.0,171.0,1,07/13/2020
479,15676,37,37,7,bprekwckiqdd,itc,1007.0,30.0,60.0,10.0,1,07/13/2020
480,15677,39,39,7,bprekwckiqdd,itc,2157.0,14.0,35.0,15.0,1,07/13/2020
481,15678,41,41,7,bprekwckiqdd,itc,1064.0,31.0,55.0,129.0,1,07/13/2020
482,15679,43,43,7,bprekwckiqdd,itc,1444.0,11.0,30.0,108.0,1,07/13/2020
483,15680,45,45,7,bprekwckiqdd,itc,1935.0,5.0,30.0,122.0,1,07/13/2020
484,15681,47,47,7,bprekwckiqdd,itc,2075.0,5.0,25.0,16.0,1,07/13/2020
485,15682,49,49,7,bprekwckiqdd,itc,2674.0,20.0,80.0,12.0,1,07/13/2020
486,15683,51,51,7,bprekwckiqdd,itc,1278.0,49.0,50.0,51.0,0,07/13/2020
487,15684,53,53,7,bprekwckiqdd,itc,1347.0,50.0,60.0,80.0,1,07/13/2020
488,15685,55,55,7,bprekwckiqdd,itc,1616.0,20.0,60.0,8.0,1,07/13/2020
489,15686,57,57,7,bprekwckiqdd,itc,1028.0,34.0,85.0,250.0,1,07/13/2020
490,18036,5,5,8,bprekwckiqdd,itc,4088.0,15.0,30.0,10.0,1,07/13/2020
491,18037,7,7,8,bprekwckiqdd,itc,1001.0,10.0,35.0,61.0,1,07/13/2020
492,18038,9,9,8,bprekwckiqdd,itc,2640.0,10.0,60.0,122.0,1,07/13/2020
493,18039,11,11,8,bprekwckiqdd,itc,1773.0,23.0,35.0,87.0,1,07/13/2020
494,18040,13,13,8,bprekwckiqdd,itc,3865.0,6.0,25.0,198.0,1,07/13/2020
495,18041,15,15,8,bprekwckiqdd,itc,1057.0,40.0,80.0,10.0,1,07/13/2020
496,18042,17,17,8,bprekwckiqdd,itc,4747.0,52.0,55.0,144.0,0,07/13/2020
497,18043,19,19,8,bprekwckiqdd,itc,1161.0,60.0,75.0,100.0,1,07/13/2020
498,18044,21,21,8,bprekwckiqdd,itc,1661.0,50.0,55.0,40.0,1,07/13/2020
499,18045,23,23,8,bprekwckiqdd,itc,2961.0,59.0,60.0,17.0,0,07/13/2020
500,18046,25,25,8,bprekwckiqdd,itc,1584.0,49.0,50.0,127.0,0,07/13/2020
501,18047,27,27,8,bprekwckiqdd,itc,3963.0,23.0,25.0,87.0,0,07/13/2020
502,18048,29,29,8,bprekwckiqdd,itc,1001.0,20.0,85.0,13.0,1,07/13/2020
503,18049,31,31,8,bprekwckiqdd,itc,1349.0,24.0,25.0,104.0,0,07/13/2020
504,18050,33,33,8,bprekwckiqdd,itc,1054.0,25.0,55.0,12.0,1,07/13/2020
505,18051,35,35,8,bprekwckiqdd,itc,2332.0,10.0,50.0,16.0,1,07/13/2020
506,18052,37,37,8,bprekwckiqdd,itc,1749.0,34.0,80.0,33.0,1,07/13/2020
507,18053,39,39,8,bprekwckiqdd,itc,3297.0,79.0,85.0,76.0,0,07/13/2020
508,18054,41,41,8,bprekwckiqdd,itc,2235.0,32.0,75.0,84.0,1,07/13/2020
509,18055,43,43,8,bprekwckiqdd,itc,3357.0,10.0,30.0,8.0,1,07/13/2020
510,18056,45,45,8,bprekwckiqdd,itc,1493.0,19.0,50.0,102.0,1,07/13/2020
511,18057,47,47,8,bprekwckiqdd,itc,2815.0,72.0,75.0,104.0,0,07/13/2020
512,18058,49,49,8,bprekwckiqdd,itc,1540.0,79.0,80.0,79.0,0,07/13/2020
513,18059,51,51,8,bprekwckiqdd,itc,1351.0,29.0,30.0,215.0,0,07/13/2020
514,18060,53,53,8,bprekwckiqdd,itc,2516.0,53.0,60.0,22.0,1,07/13/2020
515,18061,55,55,8,bprekwckiqdd,itc,1492.0,34.0,85.0,250.0,1,07/13/2020
516,18062,57,57,8,bprekwckiqdd,itc,2412.0,28.0,35.0,100.0,1,07/13/2020
517,20466,5,5,9,bprekwckiqdd,itc,3663.0,10.0,25.0,15.0,1,07/13/2020
518,20467,7,7,9,bprekwckiqdd,itc,2961.0,59.0,60.0,106.0,1,07/13/2020
519,20468,9,9,9,bprekwckiqdd,itc,1780.0,30.0,75.0,15.0,1,07/13/2020
520,20469,11,11,9,bprekwckiqdd,itc,1537.0,40.0,50.0,100.0,1,07/13/2020
521,20470,13,13,9,bprekwckiqdd,itc,1351.0,54.0,85.0,14.0,1,07/13/2020
522,20471,15,15,9,bprekwckiqdd,itc,1222.0,64.0,80.0,100.0,1,07/13/2020
523,20472,17,17,9,bprekwckiqdd,itc,1443.0,28.0,35.0,100.0,1,07/13/2020
524,20473,19,19,9,bprekwckiqdd,itc,1920.0,20.0,80.0,12.0,1,07/13/2020
525,20474,21,21,9,bprekwckiqdd,itc,1811.0,34.0,35.0,183.0,0,07/13/2020
526,20475,23,23,9,bprekwckiqdd,itc,1903.0,23.0,25.0,87.0,0,07/13/2020
527,20476,25,25,9,bprekwckiqdd,itc,1198.0,25.0,55.0,75.0,1,07/13/2020
528,20477,27,27,9,bprekwckiqdd,itc,1684.0,46.0,50.0,87.0,0,07/13/2020
529,20478,29,29,9,bprekwckiqdd,itc,1740.0,58.0,60.0,86.0,0,07/13/2020
530,20479,31,31,9,bprekwckiqdd,itc,1757.0,82.0,85.0,229.0,0,07/13/2020
531,20480,33,33,9,bprekwckiqdd,itc,1211.0,20.0,55.0,7.0,1,07/13/2020
532,20481,35,35,9,bprekwckiqdd,itc,2088.0,31.0,55.0,129.0,1,07/13/2020
533,20482,37,37,9,bprekwckiqdd,itc,1368.0,32.0,75.0,84.0,1,07/13/2020
534,20483,39,39,9,bprekwckiqdd,itc,1314.0,8.0,50.0,128.0,1,07/13/2020
535,20484,41,41,9,bprekwckiqdd,itc,1240.0,29.0,30.0,86.0,0,07/13/2020
536,20485,43,43,9,bprekwckiqdd,itc,1887.0,79.0,85.0,76.0,0,07/13/2020
537,20486,45,45,9,bprekwckiqdd,itc,1028.0,30.0,60.0,10.0,1,07/13/2020
538,20487,47,47,9,bprekwckiqdd,itc,2183.0,10.0,35.0,61.0,1,07/13/2020
539,20488,49,49,9,bprekwckiqdd,itc,1319.0,43.0,75.0,124.0,1,07/13/2020
540,20489,51,51,9,bprekwckiqdd,itc,1178.0,14.0,25.0,131.0,1,07/13/2020
541,20490,53,53,9,bprekwckiqdd,itc,1449.0,10.0,30.0,8.0,1,07/13/2020
542,20491,55,55,9,bprekwckiqdd,itc,1240.0,11.0,30.0,108.0,1,07/13/2020
543,20492,57,57,9,bprekwckiqdd,itc,2174.0,78.0,80.0,64.0,0,07/13/2020
544,22950,5,5,10,bprekwckiqdd,itc,2313.0,77.0,80.0,39.0,1,07/13/2020
545,22951,7,7,10,bprekwckiqdd,itc,1314.0,54.0,55.0,116.0,0,07/13/2020
546,22952,9,9,10,bprekwckiqdd,itc,1001.0,54.0,85.0,14.0,1,07/13/2020
547,22953,11,11,10,bprekwckiqdd,itc,1000.0,13.0,30.0,218.0,1,07/13/2020
548,22954,13,13,10,bprekwckiqdd,itc,1623.0,10.0,50.0,16.0,1,07/13/2020
549,22955,15,15,10,bprekwckiqdd,itc,1573.0,29.0,30.0,215.0,0,07/13/2020
550,22956,17,17,10,bprekwckiqdd,itc,1539.0,72.0,75.0,104.0,0,07/13/2020
551,22957,19,19,10,bprekwckiqdd,itc,1836.0,10.0,35.0,61.0,1,07/13/2020
552,22958,21,21,10,bprekwckiqdd,itc,1177.0,25.0,35.0,25.0,1,07/13/2020
553,22959,23,23,10,bprekwckiqdd,itc,1170.0,25.0,75.0,8.0,1,07/13/2020
554,22960,25,25,10,bprekwckiqdd,itc,1408.0,10.0,25.0,15.0,1,07/13/2020
555,22961,27,27,10,bprekwckiqdd,itc,1186.0,10.0,60.0,122.0,1,07/13/2020
556,22962,29,29,10,bprekwckiqdd,itc,1207.0,20.0,60.0,125.0,1,07/13/2020
557,22963,31,31,10,bprekwckiqdd,itc,1141.0,49.0,50.0,51.0,0,07/13/2020
558,22964,33,33,10,bprekwckiqdd,itc,1402.0,23.0,25.0,87.0,0,07/13/2020
559,22965,35,35,10,bprekwckiqdd,itc,1914.0,50.0,55.0,100.0,0,07/13/2020
560,22966,37,37,10,bprekwckiqdd,itc,2845.0,25.0,30.0,80.0,0,07/13/2020
561,22967,39,39,10,bprekwckiqdd,itc,1005.0,40.0,50.0,100.0,1,07/13/2020
562,22968,41,41,10,bprekwckiqdd,itc,1337.0,33.0,80.0,89.0,1,07/13/2020
563,22969,43,43,10,bprekwckiqdd,itc,1045.0,10.0,35.0,10.0,1,07/13/2020
564,22970,45,45,10,bprekwckiqdd,itc,1287.0,50.0,85.0,7.0,1,07/13/2020
565,22971,47,47,10,bprekwckiqdd,itc,1234.0,50.0,80.0,100.0,1,07/13/2020
566,22972,49,49,10,bprekwckiqdd,itc,1737.0,53.0,60.0,22.0,1,07/13/2020
567,22973,51,51,10,bprekwckiqdd,itc,1154.0,24.0,25.0,104.0,0,07/13/2020
568,22974,53,53,10,bprekwckiqdd,itc,1591.0,80.0,85.0,25.0,1,07/13/2020
569,22975,55,55,10,bprekwckiqdd,itc,1272.0,73.0,75.0,171.0,0,07/13/2020
570,22976,57,57,10,bprekwckiqdd,itc,1145.0,25.0,55.0,12.0,1,07/13/2020
571,25299,5,5,11,bprekwckiqdd,itc,3649.0,25.0,30.0,80.0,0,07/13/2020
572,25300,7,7,11,bprekwckiqdd,itc,1046.0,50.0,85.0,7.0,1,07/13/2020
573,25301,9,9,11,bprekwckiqdd,itc,1002.0,25.0,75.0,8.0,1,07/13/2020
574,25302,11,11,11,bprekwckiqdd,itc,2273.0,33.0,80.0,89.0,1,07/13/2020
575,25303,13,13,11,bprekwckiqdd,itc,1514.0,10.0,60.0,122.0,1,07/13/2020
576,25304,15,15,11,bprekwckiqdd,itc,1558.0,58.0,60.0,86.0,0,07/13/2020
577,25305,17,17,11,bprekwckiqdd,itc,1345.0,4.0,25.0,128.0,1,07/13/2020
578,25306,19,19,11,bprekwckiqdd,itc,1237.0,79.0,85.0,190.0,0,07/13/2020
579,25307,21,21,11,bprekwckiqdd,itc,1417.0,10.0,30.0,8.0,1,07/13/2020
580,25308,23,23,11,bprekwckiqdd,itc,1007.0,31.0,35.0,129.0,0,07/13/2020
581,25309,25,25,11,bprekwckiqdd,itc,1213.0,73.0,75.0,171.0,0,07/13/2020
582,25310,27,27,11,bprekwckiqdd,itc,1075.0,34.0,35.0,183.0,0,07/13/2020
583,25311,29,29,11,bprekwckiqdd,itc,1409.0,40.0,50.0,100.0,1,07/13/2020
584,25312,31,31,11,bprekwckiqdd,itc,1430.0,49.0,50.0,127.0,0,07/13/2020
585,25313,33,33,11,bprekwckiqdd,itc,1171.0,54.0,85.0,14.0,1,07/13/2020
586,25314,35,35,11,bprekwckiqdd,itc,1240.0,11.0,30.0,108.0,1,07/13/2020
587,25315,37,37,11,bprekwckiqdd,itc,1024.0,50.0,80.0,100.0,1,07/13/2020
588,25316,39,39,11,bprekwckiqdd,itc,1408.0,10.0,25.0,15.0,1,07/13/2020
589,25317,41,41,11,bprekwckiqdd,itc,3279.0,46.0,50.0,87.0,0,07/13/2020
590,25318,43,43,11,bprekwckiqdd,itc,1294.0,20.0,55.0,7.0,1,07/13/2020
591,25319,45,45,11,bprekwckiqdd,itc,1132.0,24.0,25.0,104.0,0,07/13/2020
592,25320,47,47,11,bprekwckiqdd,itc,1004.0,64.0,80.0,100.0,1,07/13/2020
593,25321,49,49,11,bprekwckiqdd,itc,1471.0,25.0,55.0,12.0,1,07/13/2020
594,25322,51,51,11,bprekwckiqdd,itc,1527.0,69.0,75.0,87.0,1,07/13/2020
595,25323,53,53,11,bprekwckiqdd,itc,1445.0,53.0,60.0,22.0,1,07/13/2020
596,25324,55,55,11,bprekwckiqdd,itc,1436.0,23.0,35.0,87.0,1,07/13/2020
597,25325,57,57,11,bprekwckiqdd,itc,1035.0,25.0,55.0,75.0,1,07/13/2020
598,27594,5,5,12,bprekwckiqdd,itc,2455.0,24.0,25.0,104.0,0,07/13/2020
599,27595,7,7,12,bprekwckiqdd,itc,1255.0,15.0,30.0,10.0,1,07/13/2020
600,27596,9,9,12,bprekwckiqdd,itc,1742.0,10.0,35.0,61.0,1,07/13/2020
601,27597,11,11,12,bprekwckiqdd,itc,1558.0,25.0,55.0,75.0,1,07/13/2020
602,27598,13,13,12,bprekwckiqdd,itc,2719.0,25.0,30.0,80.0,0,07/13/2020
603,27599,15,15,12,bprekwckiqdd,itc,1126.0,46.0,85.0,53.0,1,07/13/2020
604,27600,17,17,12,bprekwckiqdd,itc,1433.0,25.0,35.0,25.0,1,07/13/2020
605,27601,19,19,12,bprekwckiqdd,itc,1244.0,10.0,50.0,16.0,1,07/13/2020
606,27602,21,21,12,bprekwckiqdd,itc,1247.0,59.0,60.0,106.0,0,07/13/2020
607,27603,23,23,12,bprekwckiqdd,itc,1450.0,82.0,85.0,229.0,0,07/13/2020
608,27604,25,25,12,bprekwckiqdd,itc,1271.0,13.0,30.0,218.0,1,07/13/2020
609,27605,27,27,12,bprekwckiqdd,itc,1082.0,5.0,55.0,244.0,1,07/13/2020
610,27606,29,29,12,bprekwckiqdd,itc,1167.0,10.0,35.0,10.0,1,07/13/2020
611,27607,31,31,12,bprekwckiqdd,itc,1108.0,23.0,25.0,87.0,0,07/13/2020
612,27608,33,33,12,bprekwckiqdd,itc,1624.0,80.0,85.0,25.0,0,07/13/2020
613,27609,35,35,12,bprekwckiqdd,itc,1263.0,77.0,80.0,39.0,1,07/13/2020
614,27610,37,37,12,bprekwckiqdd,itc,1388.0,12.0,75.0,128.0,1,07/13/2020
615,27611,39,39,12,bprekwckiqdd,itc,1870.0,53.0,60.0,22.0,1,07/13/2020
616,27612,41,41,12,bprekwckiqdd,itc,1098.0,24.0,25.0,260.0,0,07/13/2020
617,27613,43,43,12,bprekwckiqdd,itc,1339.0,30.0,60.0,10.0,1,07/13/2020
618,27614,45,45,12,bprekwckiqdd,itc,1793.0,46.0,50.0,87.0,1,07/13/2020
619,27615,47,47,12,bprekwckiqdd,itc,1266.0,49.0,50.0,51.0,0,07/13/2020
620,27616,49,49,12,bprekwckiqdd,itc,1006.0,30.0,75.0,15.0,1,07/13/2020
621,27617,51,51,12,bprekwckiqdd,itc,1207.0,20.0,80.0,12.0,1,07/13/2020
622,27618,53,53,12,bprekwckiqdd,itc,1554.0,72.0,75.0,104.0,0,07/13/2020
623,27619,55,55,12,bprekwckiqdd,itc,1711.0,50.0,80.0,100.0,1,07/13/2020
624,27620,57,57,12,bprekwckiqdd,itc,1063.0,50.0,55.0,40.0,1,07/13/2020
625,2889,5,5,2,bqhkuypudcri,itc,5617.0,31.0,55.0,129.0,1,07/13/2020
626,2890,7,7,2,bqhkuypudcri,itc,2030.0,69.0,75.0,87.0,0,07/13/2020
627,2891,9,9,2,bqhkuypudcri,itc,1443.0,20.0,60.0,125.0,1,07/13/2020
628,2892,11,11,2,bqhkuypudcri,itc,1076.0,20.0,85.0,13.0,1,07/13/2020
629,2893,13,13,2,bqhkuypudcri,itc,1161.0,78.0,80.0,64.0,1,07/13/2020
630,2894,15,15,2,bqhkuypudcri,itc,2082.0,30.0,60.0,10.0,1,07/13/2020
631,2895,17,17,2,bqhkuypudcri,itc,2585.0,23.0,35.0,87.0,0,07/13/2020
632,2896,19,19,2,bqhkuypudcri,itc,1407.0,50.0,60.0,80.0,0,07/13/2020
633,2897,21,21,2,bqhkuypudcri,itc,1577.0,52.0,55.0,144.0,0,07/13/2020
634,2898,23,23,2,bqhkuypudcri,itc,1168.0,29.0,30.0,215.0,0,07/13/2020
635,2899,25,25,2,bqhkuypudcri,itc,1401.0,30.0,75.0,15.0,1,07/13/2020
636,2900,27,27,2,bqhkuypudcri,itc,1551.0,20.0,25.0,100.0,0,07/13/2020
637,2901,29,29,2,bqhkuypudcri,itc,2388.0,10.0,35.0,10.0,1,07/13/2020
638,2902,31,31,2,bqhkuypudcri,itc,1378.0,8.0,50.0,128.0,1,07/13/2020
639,2903,33,33,2,bqhkuypudcri,itc,4060.0,80.0,85.0,25.0,0,07/13/2020
640,2904,35,35,2,bqhkuypudcri,itc,1222.0,82.0,85.0,229.0,0,07/13/2020
641,2905,37,37,2,bqhkuypudcri,itc,3080.0,10.0,25.0,15.0,1,07/13/2020
642,2906,39,39,2,bqhkuypudcri,itc,4442.0,50.0,80.0,100.0,0,07/13/2020
643,2907,41,41,2,bqhkuypudcri,itc,1292.0,54.0,55.0,116.0,0,07/13/2020
644,2908,43,43,2,bqhkuypudcri,itc,1452.0,46.0,50.0,87.0,0,07/13/2020
645,2909,45,45,2,bqhkuypudcri,itc,1118.0,27.0,30.0,111.0,0,07/13/2020
646,2910,47,47,2,bqhkuypudcri,itc,2863.0,33.0,80.0,89.0,1,07/13/2020
647,2911,49,49,2,bqhkuypudcri,itc,3898.0,32.0,35.0,234.0,0,07/13/2020
648,2912,51,51,2,bqhkuypudcri,itc,2531.0,10.0,50.0,16.0,1,07/13/2020
649,2913,53,53,2,bqhkuypudcri,itc,3511.0,12.0,75.0,128.0,0,07/13/2020
650,2915,57,57,2,bqhkuypudcri,itc,5842.0,5.0,30.0,122.0,1,07/13/2020
651,5589,11,11,3,bqhkuypudcri,itc,5398.0,73.0,75.0,171.0,0,07/13/2020
652,5590,13,13,3,bqhkuypudcri,itc,2147.0,25.0,30.0,80.0,0,07/13/2020
653,5591,15,15,3,bqhkuypudcri,itc,1511.0,11.0,30.0,108.0,1,07/13/2020
654,5592,17,17,3,bqhkuypudcri,itc,1623.0,24.0,25.0,104.0,0,07/13/2020
655,5593,19,19,3,bqhkuypudcri,itc,2438.0,34.0,35.0,183.0,0,07/13/2020
656,5594,21,21,3,bqhkuypudcri,itc,1549.0,23.0,25.0,87.0,0,07/13/2020
657,5595,23,23,3,bqhkuypudcri,itc,3491.0,25.0,55.0,75.0,1,07/13/2020
658,5596,25,25,3,bqhkuypudcri,itc,1848.0,52.0,55.0,144.0,0,07/13/2020
659,5597,27,27,3,bqhkuypudcri,itc,1372.0,10.0,35.0,10.0,0,07/13/2020
660,5598,29,29,3,bqhkuypudcri,itc,1811.0,14.0,25.0,131.0,0,07/13/2020
661,5599,31,31,3,bqhkuypudcri,itc,1357.0,80.0,85.0,25.0,0,07/13/2020
662,5600,33,33,3,bqhkuypudcri,itc,1985.0,15.0,30.0,10.0,1,07/13/2020
663,5601,35,35,3,bqhkuypudcri,itc,1694.0,50.0,55.0,100.0,0,07/13/2020
664,5602,37,37,3,bqhkuypudcri,itc,1590.0,10.0,50.0,16.0,1,07/13/2020
665,5603,39,39,3,bqhkuypudcri,itc,2061.0,8.0,50.0,128.0,1,07/13/2020
666,5604,41,41,3,bqhkuypudcri,itc,3453.0,10.0,35.0,61.0,1,07/13/2020
667,5605,43,43,3,bqhkuypudcri,itc,2114.0,50.0,60.0,80.0,1,07/13/2020
668,5606,45,45,3,bqhkuypudcri,itc,3679.0,32.0,75.0,84.0,1,07/13/2020
669,5607,47,47,3,bqhkuypudcri,itc,1802.0,54.0,85.0,14.0,1,07/13/2020
670,5608,49,49,3,bqhkuypudcri,itc,2628.0,53.0,60.0,22.0,0,07/13/2020
671,5609,51,51,3,bqhkuypudcri,itc,9480.0,59.0,60.0,106.0,0,07/13/2020
672,5610,53,53,3,bqhkuypudcri,itc,1617.0,72.0,75.0,104.0,0,07/13/2020
673,5611,55,55,3,bqhkuypudcri,itc,1193.0,50.0,80.0,100.0,1,07/13/2020
674,5612,57,57,3,bqhkuypudcri,itc,1163.0,50.0,85.0,7.0,1,07/13/2020
675,5613,59,59,3,bqhkuypudcri,itc,1096.0,20.0,80.0,12.0,1,07/13/2020
676,5614,61,61,3,bqhkuypudcri,itc,1170.0,25.0,50.0,10.0,1,07/13/2020
677,5615,63,63,3,bqhkuypudcri,itc,1680.0,77.0,80.0,39.0,0,07/13/2020
678,8208,8,8,4,bqhkuypudcri,itc,3544.0,14.0,25.0,131.0,1,07/13/2020
679,8209,10,10,4,bqhkuypudcri,itc,1671.0,79.0,85.0,76.0,0,07/13/2020
680,8210,12,12,4,bqhkuypudcri,itc,1595.0,25.0,50.0,10.0,1,07/13/2020
681,8211,14,14,4,bqhkuypudcri,itc,1814.0,58.0,60.0,86.0,0,07/13/2020
682,8212,16,16,4,bqhkuypudcri,itc,1562.0,14.0,35.0,15.0,1,07/13/2020
683,8213,18,18,4,bqhkuypudcri,itc,1520.0,10.0,35.0,10.0,1,07/13/2020
684,8214,20,20,4,bqhkuypudcri,itc,1020.0,20.0,60.0,125.0,1,07/13/2020
685,8215,22,22,4,bqhkuypudcri,itc,1573.0,5.0,30.0,122.0,1,07/13/2020
686,8216,24,24,4,bqhkuypudcri,itc,1391.0,24.0,25.0,104.0,0,07/13/2020
687,8217,26,26,4,bqhkuypudcri,itc,1280.0,59.0,60.0,106.0,0,07/13/2020
688,8218,28,28,4,bqhkuypudcri,itc,3218.0,25.0,75.0,8.0,1,07/13/2020
689,8219,30,30,4,bqhkuypudcri,itc,2170.0,79.0,85.0,190.0,0,07/13/2020
690,8220,32,32,4,bqhkuypudcri,itc,1819.0,24.0,25.0,260.0,0,07/13/2020
691,8221,34,34,4,bqhkuypudcri,itc,1143.0,46.0,50.0,87.0,0,07/13/2020
692,8222,36,36,4,bqhkuypudcri,itc,1306.0,34.0,80.0,33.0,1,07/13/2020
693,8223,38,38,4,bqhkuypudcri,itc,1461.0,31.0,55.0,129.0,1,07/13/2020
694,8224,40,40,4,bqhkuypudcri,itc,1068.0,20.0,55.0,7.0,1,07/13/2020
695,8225,42,42,4,bqhkuypudcri,itc,1319.0,11.0,30.0,108.0,1,07/13/2020
696,8226,44,44,4,bqhkuypudcri,itc,1480.0,60.0,75.0,100.0,0,07/13/2020
697,8227,46,46,4,bqhkuypudcri,itc,1664.0,31.0,35.0,129.0,0,07/13/2020
698,8228,48,48,4,bqhkuypudcri,itc,2182.0,50.0,55.0,40.0,0,07/13/2020
699,8229,50,50,4,bqhkuypudcri,itc,1820.0,32.0,75.0,84.0,1,07/13/2020
700,8230,52,52,4,bqhkuypudcri,itc,2426.0,50.0,80.0,100.0,1,07/13/2020
701,8231,54,54,4,bqhkuypudcri,itc,1596.0,79.0,80.0,79.0,0,07/13/2020
702,8232,56,56,4,bqhkuypudcri,itc,1772.0,25.0,30.0,80.0,0,07/13/2020
703,8233,58,58,4,bqhkuypudcri,itc,1427.0,50.0,85.0,7.0,1,07/13/2020
704,8234,60,60,4,bqhkuypudcri,itc,1285.0,8.0,50.0,128.0,0,07/13/2020
705,10746,5,5,5,bqhkuypudcri,itc,3862.0,79.0,85.0,76.0,0,07/13/2020
706,10747,7,7,5,bqhkuypudcri,itc,2762.0,50.0,55.0,100.0,0,07/13/2020
707,10748,9,9,5,bqhkuypudcri,itc,1495.0,4.0,25.0,128.0,0,07/13/2020
708,10749,11,11,5,bqhkuypudcri,itc,1880.0,20.0,60.0,125.0,0,07/13/2020
709,10750,13,13,5,bqhkuypudcri,itc,1590.0,31.0,55.0,129.0,0,07/13/2020
710,10751,15,15,5,bqhkuypudcri,itc,1286.0,43.0,75.0,124.0,0,07/13/2020
711,10752,17,17,5,bqhkuypudcri,itc,2126.0,13.0,30.0,218.0,0,07/13/2020
712,10753,19,19,5,bqhkuypudcri,itc,1721.0,20.0,60.0,8.0,1,07/13/2020
713,10754,21,21,5,bqhkuypudcri,itc,1202.0,54.0,85.0,14.0,1,07/13/2020
714,10755,23,23,5,bqhkuypudcri,itc,1347.0,34.0,35.0,183.0,0,07/13/2020
715,10756,25,25,5,bqhkuypudcri,itc,1330.0,27.0,30.0,111.0,0,07/13/2020
716,10757,27,27,5,bqhkuypudcri,itc,1001.0,49.0,50.0,127.0,0,07/13/2020
717,10758,29,29,5,bqhkuypudcri,itc,1058.0,50.0,55.0,40.0,0,07/13/2020
718,10759,31,31,5,bqhkuypudcri,itc,1521.0,15.0,30.0,10.0,1,07/13/2020
719,10760,33,33,5,bqhkuypudcri,itc,1685.0,33.0,80.0,89.0,1,07/13/2020
720,10761,35,35,5,bqhkuypudcri,itc,1163.0,78.0,80.0,64.0,0,07/13/2020
721,10762,37,37,5,bqhkuypudcri,itc,1584.0,8.0,50.0,128.0,1,07/13/2020
722,10763,39,39,5,bqhkuypudcri,itc,1279.0,20.0,25.0,100.0,0,07/13/2020
723,10764,41,41,5,bqhkuypudcri,itc,1715.0,64.0,80.0,100.0,0,07/13/2020
724,10765,43,43,5,bqhkuypudcri,itc,1048.0,24.0,25.0,104.0,0,07/13/2020
725,10766,45,45,5,bqhkuypudcri,itc,1219.0,25.0,35.0,25.0,0,07/13/2020
726,10767,47,47,5,bqhkuypudcri,itc,1434.0,20.0,85.0,13.0,1,07/13/2020
727,10768,49,49,5,bqhkuypudcri,itc,1209.0,73.0,75.0,171.0,0,07/13/2020
728,10769,51,51,5,bqhkuypudcri,itc,1449.0,30.0,60.0,10.0,1,07/13/2020
729,10770,53,53,5,bqhkuypudcri,itc,1701.0,49.0,50.0,51.0,0,07/13/2020
730,10771,55,55,5,bqhkuypudcri,itc,1592.0,30.0,75.0,15.0,1,07/13/2020
731,10772,57,57,5,bqhkuypudcri,itc,2793.0,10.0,35.0,10.0,1,07/13/2020
732,13284,5,5,6,bqhkuypudcri,itc,3394.0,11.0,30.0,108.0,1,07/13/2020
733,13285,7,7,6,bqhkuypudcri,itc,1238.0,50.0,80.0,100.0,1,07/13/2020
734,13286,9,9,6,bqhkuypudcri,itc,1001.0,28.0,35.0,100.0,0,07/13/2020
735,13287,11,11,6,bqhkuypudcri,itc,1573.0,79.0,80.0,79.0,0,07/13/2020
736,13288,13,13,6,bqhkuypudcri,itc,1332.0,46.0,85.0,53.0,1,07/13/2020
737,13289,15,15,6,bqhkuypudcri,itc,1926.0,72.0,75.0,104.0,0,07/13/2020
738,13290,17,17,6,bqhkuypudcri,itc,1784.0,25.0,75.0,8.0,1,07/13/2020
739,13291,19,19,6,bqhkuypudcri,itc,1546.0,5.0,25.0,16.0,1,07/13/2020
740,13292,21,21,6,bqhkuypudcri,itc,1199.0,10.0,60.0,122.0,1,07/13/2020
741,13293,23,23,6,bqhkuypudcri,itc,1256.0,10.0,35.0,61.0,1,07/13/2020
742,13294,25,25,6,bqhkuypudcri,itc,1177.0,15.0,30.0,10.0,1,07/13/2020
743,13295,27,27,6,bqhkuypudcri,itc,1288.0,31.0,55.0,129.0,1,07/13/2020
744,13296,29,29,6,bqhkuypudcri,itc,1493.0,29.0,30.0,215.0,0,07/13/2020
745,13297,31,31,6,bqhkuypudcri,itc,2712.0,31.0,35.0,129.0,0,07/13/2020
746,13298,33,33,6,bqhkuypudcri,itc,1879.0,60.0,75.0,100.0,0,07/13/2020
747,13299,35,35,6,bqhkuypudcri,itc,1672.0,50.0,55.0,100.0,0,07/13/2020
748,13300,37,37,6,bqhkuypudcri,itc,1241.0,54.0,55.0,116.0,0,07/13/2020
749,13301,39,39,6,bqhkuypudcri,itc,1086.0,54.0,85.0,14.0,1,07/13/2020
750,13302,41,41,6,bqhkuypudcri,itc,1541.0,58.0,60.0,86.0,0,07/13/2020
751,13303,43,43,6,bqhkuypudcri,itc,1248.0,40.0,50.0,100.0,1,07/13/2020
752,13304,45,45,6,bqhkuypudcri,itc,1672.0,10.0,50.0,16.0,1,07/13/2020
753,13305,47,47,6,bqhkuypudcri,itc,1171.0,40.0,80.0,10.0,1,07/13/2020
754,13306,49,49,6,bqhkuypudcri,itc,1333.0,79.0,85.0,76.0,0,07/13/2020
755,13307,51,51,6,bqhkuypudcri,itc,1588.0,24.0,25.0,104.0,0,07/13/2020
756,13308,53,53,6,bqhkuypudcri,itc,1552.0,30.0,60.0,10.0,1,07/13/2020
757,13309,55,55,6,bqhkuypudcri,itc,2145.0,14.0,25.0,131.0,0,07/13/2020
758,13310,57,57,6,bqhkuypudcri,itc,2243.0,19.0,50.0,102.0,1,07/13/2020
759,18063,5,5,8,bqhkuypudcri,itc,2919.0,28.0,35.0,100.0,0,07/13/2020
760,18064,7,7,8,bqhkuypudcri,itc,1207.0,54.0,85.0,14.0,0,07/13/2020
761,18065,9,9,8,bqhkuypudcri,itc,2106.0,30.0,60.0,10.0,1,07/13/2020
762,18066,11,11,8,bqhkuypudcri,itc,1441.0,23.0,35.0,87.0,1,07/13/2020
763,18067,13,13,8,bqhkuypudcri,itc,2558.0,54.0,55.0,116.0,0,07/13/2020
764,18068,15,15,8,bqhkuypudcri,itc,1001.0,19.0,50.0,102.0,1,07/13/2020
765,18069,17,17,8,bqhkuypudcri,itc,1525.0,52.0,55.0,144.0,0,07/13/2020
766,18070,19,19,8,bqhkuypudcri,itc,1502.0,25.0,35.0,25.0,0,07/13/2020
767,18071,21,21,8,bqhkuypudcri,itc,1483.0,72.0,75.0,104.0,0,07/13/2020
768,18072,23,23,8,bqhkuypudcri,itc,1013.0,80.0,85.0,25.0,0,07/13/2020
769,18073,25,25,8,bqhkuypudcri,itc,1101.0,20.0,60.0,8.0,1,07/13/2020
770,18074,27,27,8,bqhkuypudcri,itc,1155.0,10.0,60.0,122.0,1,07/13/2020
771,18075,29,29,8,bqhkuypudcri,itc,1102.0,5.0,25.0,16.0,1,07/13/2020
772,18076,31,31,8,bqhkuypudcri,itc,1210.0,20.0,80.0,12.0,1,07/13/2020
773,18077,33,33,8,bqhkuypudcri,itc,1336.0,23.0,25.0,87.0,0,07/13/2020
774,18078,35,35,8,bqhkuypudcri,itc,1087.0,77.0,80.0,39.0,0,07/13/2020
775,18079,37,37,8,bqhkuypudcri,itc,1514.0,50.0,55.0,100.0,0,07/13/2020
776,18080,39,39,8,bqhkuypudcri,itc,2855.0,39.0,50.0,47.0,1,07/13/2020
777,18081,41,41,8,bqhkuypudcri,itc,1896.0,15.0,30.0,10.0,1,07/13/2020
778,18082,43,43,8,bqhkuypudcri,itc,2307.0,40.0,50.0,100.0,0,07/13/2020
779,18083,45,45,8,bqhkuypudcri,itc,1744.0,32.0,75.0,84.0,1,07/13/2020
780,18084,47,47,8,bqhkuypudcri,itc,1074.0,29.0,30.0,86.0,0,07/13/2020
781,18085,49,49,8,bqhkuypudcri,itc,1136.0,24.0,25.0,260.0,0,07/13/2020
782,18086,51,51,8,bqhkuypudcri,itc,1092.0,79.0,80.0,79.0,0,07/13/2020
783,18087,53,53,8,bqhkuypudcri,itc,1119.0,5.0,30.0,122.0,1,07/13/2020
784,18088,55,55,8,bqhkuypudcri,itc,3183.0,30.0,75.0,15.0,1,07/13/2020
785,18089,57,57,8,bqhkuypudcri,itc,1380.0,34.0,85.0,250.0,0,07/13/2020
786,20493,5,5,9,bqhkuypudcri,itc,2499.0,10.0,50.0,16.0,1,07/13/2020
787,20494,7,7,9,bqhkuypudcri,itc,1166.0,79.0,80.0,79.0,0,07/13/2020
788,20495,9,9,9,bqhkuypudcri,itc,1310.0,24.0,25.0,260.0,0,07/13/2020
789,20496,11,11,9,bqhkuypudcri,itc,1042.0,50.0,60.0,80.0,0,07/13/2020
790,20497,13,13,9,bqhkuypudcri,itc,1483.0,46.0,50.0,87.0,0,07/13/2020
791,20498,15,15,9,bqhkuypudcri,itc,1704.0,25.0,55.0,12.0,1,07/13/2020
792,20499,17,17,9,bqhkuypudcri,itc,1453.0,30.0,75.0,15.0,1,07/13/2020
793,20500,19,19,9,bqhkuypudcri,itc,1692.0,14.0,35.0,15.0,1,07/13/2020
794,20501,21,21,9,bqhkuypudcri,itc,1015.0,5.0,25.0,16.0,1,07/13/2020
795,20502,23,23,9,bqhkuypudcri,itc,2159.0,5.0,30.0,122.0,1,07/13/2020
796,20503,25,25,9,bqhkuypudcri,itc,1652.0,8.0,50.0,128.0,1,07/13/2020
797,20504,27,27,9,bqhkuypudcri,itc,2740.0,64.0,80.0,100.0,1,07/13/2020
798,20505,29,29,9,bqhkuypudcri,itc,1378.0,77.0,80.0,39.0,0,07/13/2020
799,20506,31,31,9,bqhkuypudcri,itc,1569.0,46.0,85.0,53.0,1,07/13/2020
800,20507,33,33,9,bqhkuypudcri,itc,1752.0,31.0,35.0,129.0,0,07/13/2020
801,20508,35,35,9,bqhkuypudcri,itc,1438.0,43.0,75.0,124.0,1,07/13/2020
802,20509,37,37,9,bqhkuypudcri,itc,2123.0,11.0,30.0,108.0,1,07/13/2020
803,20510,39,39,9,bqhkuypudcri,itc,1508.0,32.0,35.0,234.0,0,07/13/2020
804,20511,41,41,9,bqhkuypudcri,itc,6393.0,52.0,55.0,144.0,1,07/13/2020
805,20512,43,43,9,bqhkuypudcri,itc,1604.0,53.0,60.0,22.0,1,07/13/2020
806,20513,45,45,9,bqhkuypudcri,itc,1762.0,72.0,75.0,104.0,1,07/13/2020
807,20514,47,47,9,bqhkuypudcri,itc,2162.0,20.0,25.0,100.0,0,07/13/2020
808,20515,49,49,9,bqhkuypudcri,itc,4152.0,25.0,55.0,75.0,1,07/13/2020
809,20516,51,51,9,bqhkuypudcri,itc,3060.0,20.0,85.0,13.0,1,07/13/2020
810,20517,53,53,9,bqhkuypudcri,itc,9228.0,13.0,30.0,218.0,1,07/13/2020
811,20518,55,55,9,bqhkuypudcri,itc,9219.0,54.0,85.0,14.0,1,07/13/2020
812,20519,57,57,9,bqhkuypudcri,itc,4399.0,59.0,60.0,106.0,1,07/13/2020
813,27621,5,5,12,bqhkuypudcri,itc,3037.0,82.0,85.0,229.0,0,07/13/2020
814,27622,7,7,12,bqhkuypudcri,itc,2257.0,4.0,25.0,128.0,1,07/13/2020
815,27623,9,9,12,bqhkuypudcri,itc,2854.0,53.0,60.0,22.0,1,07/13/2020
816,27624,11,11,12,bqhkuypudcri,itc,2118.0,29.0,30.0,215.0,0,07/13/2020
817,27625,13,13,12,bqhkuypudcri,itc,1695.0,10.0,35.0,10.0,1,07/13/2020
818,27626,15,15,12,bqhkuypudcri,itc,1211.0,25.0,75.0,8.0,1,07/13/2020
819,27627,17,17,12,bqhkuypudcri,itc,2023.0,50.0,55.0,100.0,0,07/13/2020
820,27628,19,19,12,bqhkuypudcri,itc,1430.0,8.0,50.0,128.0,1,07/13/2020
821,27629,21,21,12,bqhkuypudcri,itc,1424.0,43.0,75.0,124.0,1,07/13/2020
822,27630,23,23,12,bqhkuypudcri,itc,1430.0,13.0,30.0,218.0,1,07/13/2020
823,27631,25,25,12,bqhkuypudcri,itc,1510.0,14.0,35.0,15.0,1,07/13/2020
824,27632,27,27,12,bqhkuypudcri,itc,3106.0,60.0,75.0,100.0,1,07/13/2020
825,27633,29,29,12,bqhkuypudcri,itc,2246.0,25.0,55.0,12.0,1,07/13/2020
826,27634,31,31,12,bqhkuypudcri,itc,1226.0,40.0,80.0,10.0,1,07/13/2020
827,27635,33,33,12,bqhkuypudcri,itc,1398.0,49.0,50.0,127.0,0,07/13/2020
828,27636,35,35,12,bqhkuypudcri,itc,4949.0,50.0,60.0,80.0,0,07/13/2020
829,27637,37,37,12,bqhkuypudcri,itc,2067.0,52.0,55.0,144.0,0,07/13/2020
830,27638,39,39,12,bqhkuypudcri,itc,1295.0,27.0,30.0,111.0,0,07/13/2020
831,27639,41,41,12,bqhkuypudcri,itc,1415.0,54.0,85.0,14.0,1,07/13/2020
832,27640,43,43,12,bqhkuypudcri,itc,1368.0,78.0,80.0,64.0,0,07/13/2020
833,27641,45,45,12,bqhkuypudcri,itc,1849.0,20.0,25.0,100.0,0,07/13/2020
834,27642,47,47,12,bqhkuypudcri,itc,2963.0,10.0,50.0,16.0,1,07/13/2020
835,27643,49,49,12,bqhkuypudcri,itc,1394.0,46.0,85.0,53.0,1,07/13/2020
836,27644,51,51,12,bqhkuypudcri,itc,1484.0,77.0,80.0,39.0,0,07/13/2020
837,27645,53,53,12,bqhkuypudcri,itc,2132.0,20.0,60.0,125.0,1,07/13/2020
838,27646,55,55,12,bqhkuypudcri,itc,1124.0,24.0,25.0,104.0,0,07/13/2020
839,27647,57,57,12,bqhkuypudcri,itc,1612.0,25.0,35.0,25.0,0,07/13/2020
840,54,5,5,1,bsgzqgdmavbm,itc,2318.0,10.0,35.0,10.0,1,07/13/2020
841,55,7,7,1,bsgzqgdmavbm,itc,2624.0,50.0,55.0,40.0,0,07/13/2020
842,56,9,9,1,bsgzqgdmavbm,itc,1835.0,5.0,55.0,244.0,1,07/13/2020
843,57,11,11,1,bsgzqgdmavbm,itc,1195.0,4.0,25.0,128.0,1,07/13/2020
844,58,13,13,1,bsgzqgdmavbm,itc,1129.0,10.0,50.0,16.0,1,07/13/2020
845,59,15,15,1,bsgzqgdmavbm,itc,1365.0,15.0,30.0,10.0,1,07/13/2020
846,60,17,17,1,bsgzqgdmavbm,itc,2517.0,59.0,60.0,106.0,0,07/13/2020
847,61,19,19,1,bsgzqgdmavbm,itc,1872.0,43.0,75.0,124.0,1,07/13/2020
848,62,21,21,1,bsgzqgdmavbm,itc,1224.0,31.0,55.0,129.0,1,07/13/2020
849,63,23,23,1,bsgzqgdmavbm,itc,1141.0,54.0,85.0,14.0,1,07/13/2020
850,64,25,25,1,bsgzqgdmavbm,itc,1225.0,13.0,30.0,218.0,1,07/13/2020
851,65,27,27,1,bsgzqgdmavbm,itc,2141.0,24.0,25.0,260.0,0,07/13/2020
852,66,29,29,1,bsgzqgdmavbm,itc,2296.0,28.0,35.0,100.0,0,07/13/2020
853,67,31,31,1,bsgzqgdmavbm,itc,1372.0,77.0,80.0,39.0,0,07/13/2020
854,68,33,33,1,bsgzqgdmavbm,itc,2048.0,33.0,80.0,89.0,1,07/13/2020
855,69,35,35,1,bsgzqgdmavbm,itc,1607.0,19.0,50.0,102.0,1,07/13/2020
856,70,37,37,1,bsgzqgdmavbm,itc,2549.0,59.0,60.0,17.0,0,07/13/2020
857,71,39,39,1,bsgzqgdmavbm,itc,2194.0,79.0,85.0,190.0,1,07/13/2020
858,72,41,41,1,bsgzqgdmavbm,itc,1924.0,49.0,50.0,51.0,0,07/13/2020
859,73,43,43,1,bsgzqgdmavbm,itc,2321.0,30.0,60.0,10.0,1,07/13/2020
860,74,45,45,1,bsgzqgdmavbm,itc,1581.0,25.0,35.0,25.0,1,07/13/2020
861,75,47,47,1,bsgzqgdmavbm,itc,1319.0,30.0,75.0,15.0,1,07/13/2020
862,76,49,49,1,bsgzqgdmavbm,itc,1174.0,20.0,80.0,12.0,1,07/13/2020
863,77,51,51,1,bsgzqgdmavbm,itc,1704.0,80.0,85.0,25.0,1,07/13/2020
864,78,53,53,1,bsgzqgdmavbm,itc,1664.0,29.0,30.0,86.0,0,07/13/2020
865,79,55,55,1,bsgzqgdmavbm,itc,1556.0,73.0,75.0,171.0,0,07/13/2020
866,80,57,57,1,bsgzqgdmavbm,itc,2093.0,23.0,25.0,87.0,0,07/13/2020
867,2916,5,5,2,bsgzqgdmavbm,itc,1905.0,10.0,35.0,10.0,1,07/13/2020
868,2917,7,7,2,bsgzqgdmavbm,itc,1268.0,54.0,85.0,14.0,1,07/13/2020
869,2918,9,9,2,bsgzqgdmavbm,itc,2078.0,43.0,75.0,124.0,1,07/13/2020
870,2919,11,11,2,bsgzqgdmavbm,itc,1208.0,72.0,75.0,104.0,0,07/13/2020
871,2920,13,13,2,bsgzqgdmavbm,itc,1529.0,24.0,25.0,260.0,0,07/13/2020
872,2921,15,15,2,bsgzqgdmavbm,itc,1179.0,20.0,80.0,12.0,1,07/13/2020
873,2922,17,17,2,bsgzqgdmavbm,itc,1935.0,77.0,80.0,39.0,1,07/13/2020
874,2923,19,19,2,bsgzqgdmavbm,itc,1931.0,14.0,25.0,131.0,1,07/13/2020
875,2924,21,21,2,bsgzqgdmavbm,itc,1600.0,10.0,60.0,122.0,1,07/13/2020
876,2925,23,23,2,bsgzqgdmavbm,itc,1234.0,33.0,80.0,89.0,1,07/13/2020
877,2926,25,25,2,bsgzqgdmavbm,itc,1297.0,11.0,30.0,108.0,1,07/13/2020
878,2927,27,27,2,bsgzqgdmavbm,itc,1149.0,25.0,55.0,75.0,1,07/13/2020
879,2928,29,29,2,bsgzqgdmavbm,itc,1066.0,20.0,55.0,7.0,1,07/13/2020
880,2929,31,31,2,bsgzqgdmavbm,itc,1188.0,10.0,35.0,61.0,1,07/13/2020
881,2930,33,33,2,bsgzqgdmavbm,itc,1587.0,50.0,55.0,100.0,1,07/13/2020
882,2931,35,35,2,bsgzqgdmavbm,itc,1660.0,58.0,60.0,86.0,0,07/13/2020
883,2932,37,37,2,bsgzqgdmavbm,itc,1347.0,24.0,25.0,104.0,0,07/13/2020
884,2933,39,39,2,bsgzqgdmavbm,itc,1335.0,25.0,30.0,80.0,1,07/13/2020
885,2934,41,41,2,bsgzqgdmavbm,itc,1023.0,15.0,30.0,10.0,1,07/13/2020
886,2935,43,43,2,bsgzqgdmavbm,itc,1212.0,39.0,50.0,47.0,1,07/13/2020
887,2936,45,45,2,bsgzqgdmavbm,itc,1149.0,50.0,85.0,7.0,1,07/13/2020
888,2937,47,47,2,bsgzqgdmavbm,itc,1486.0,31.0,35.0,129.0,1,07/13/2020
889,2938,49,49,2,bsgzqgdmavbm,itc,1726.0,40.0,50.0,100.0,0,07/13/2020
890,2939,51,51,2,bsgzqgdmavbm,itc,1216.0,49.0,50.0,127.0,0,07/13/2020
891,2940,53,53,2,bsgzqgdmavbm,itc,1290.0,80.0,85.0,25.0,1,07/13/2020
892,2941,55,55,2,bsgzqgdmavbm,itc,1360.0,73.0,75.0,171.0,1,07/13/2020
893,2942,57,57,2,bsgzqgdmavbm,itc,3133.0,30.0,60.0,10.0,1,07/13/2020
894,5616,5,5,3,bsgzqgdmavbm,itc,2268.0,58.0,60.0,86.0,0,07/13/2020
895,5617,7,7,3,bsgzqgdmavbm,itc,2066.0,78.0,80.0,64.0,0,07/13/2020
896,5618,9,9,3,bsgzqgdmavbm,itc,2651.0,46.0,50.0,87.0,1,07/13/2020
897,5619,11,11,3,bsgzqgdmavbm,itc,1796.0,8.0,50.0,128.0,1,07/13/2020
898,5620,13,13,3,bsgzqgdmavbm,itc,1463.0,24.0,25.0,260.0,0,07/13/2020
899,5621,15,15,3,bsgzqgdmavbm,itc,1841.0,50.0,60.0,80.0,1,07/13/2020
900,5622,17,17,3,bsgzqgdmavbm,itc,1408.0,25.0,55.0,12.0,1,07/13/2020
901,5623,19,19,3,bsgzqgdmavbm,itc,1286.0,20.0,60.0,125.0,1,07/13/2020
902,5624,21,21,3,bsgzqgdmavbm,itc,1639.0,14.0,35.0,15.0,1,07/13/2020
903,5625,23,23,3,bsgzqgdmavbm,itc,1791.0,32.0,35.0,234.0,0,07/13/2020
904,5626,25,25,3,bsgzqgdmavbm,itc,1209.0,13.0,30.0,218.0,1,07/13/2020
905,5627,27,27,3,bsgzqgdmavbm,itc,6061.0,25.0,35.0,25.0,1,07/13/2020
906,5628,29,29,3,bsgzqgdmavbm,itc,2047.0,20.0,25.0,100.0,0,07/13/2020
907,5629,31,31,3,bsgzqgdmavbm,itc,1426.0,64.0,80.0,100.0,0,07/13/2020
908,5630,33,33,3,bsgzqgdmavbm,itc,1442.0,49.0,50.0,127.0,0,07/13/2020
909,5631,35,35,3,bsgzqgdmavbm,itc,1094.0,50.0,80.0,100.0,1,07/13/2020
910,5632,37,37,3,bsgzqgdmavbm,itc,1641.0,30.0,75.0,15.0,1,07/13/2020
911,5633,39,39,3,bsgzqgdmavbm,itc,1470.0,20.0,55.0,7.0,1,07/13/2020
912,5634,41,41,3,bsgzqgdmavbm,itc,1533.0,69.0,75.0,87.0,0,07/13/2020
913,5635,43,43,3,bsgzqgdmavbm,itc,1355.0,5.0,25.0,16.0,1,07/13/2020
914,5636,45,45,3,bsgzqgdmavbm,itc,1882.0,31.0,55.0,129.0,1,07/13/2020
915,5637,47,47,3,bsgzqgdmavbm,itc,1023.0,54.0,85.0,14.0,1,07/13/2020
916,5638,49,49,3,bsgzqgdmavbm,itc,1904.0,27.0,30.0,111.0,0,07/13/2020
917,5639,51,51,3,bsgzqgdmavbm,itc,2778.0,46.0,85.0,53.0,1,07/13/2020
918,5640,53,53,3,bsgzqgdmavbm,itc,1426.0,73.0,75.0,171.0,0,07/13/2020
919,5641,55,55,3,bsgzqgdmavbm,itc,1520.0,20.0,85.0,13.0,1,07/13/2020
920,5642,57,57,3,bsgzqgdmavbm,itc,1475.0,5.0,30.0,122.0,1,07/13/2020
921,10774,7,7,5,bsgzqgdmavbm,itc,1297.0,40.0,80.0,10.0,1,07/13/2020
922,10775,9,9,5,bsgzqgdmavbm,itc,1433.0,79.0,85.0,76.0,1,07/13/2020
923,10776,11,11,5,bsgzqgdmavbm,itc,2172.0,25.0,30.0,80.0,0,07/13/2020
924,10777,13,13,5,bsgzqgdmavbm,itc,1242.0,49.0,50.0,51.0,0,07/13/2020
925,10778,15,15,5,bsgzqgdmavbm,itc,1480.0,14.0,35.0,15.0,1,07/13/2020
926,10779,17,17,5,bsgzqgdmavbm,itc,1212.0,53.0,60.0,22.0,1,07/13/2020
927,10780,19,19,5,bsgzqgdmavbm,itc,2141.0,78.0,80.0,64.0,1,07/13/2020
928,10781,21,21,5,bsgzqgdmavbm,itc,1211.0,20.0,55.0,7.0,1,07/13/2020
929,10782,23,23,5,bsgzqgdmavbm,itc,1691.0,32.0,35.0,234.0,0,07/13/2020
930,10783,25,25,5,bsgzqgdmavbm,itc,1800.0,80.0,85.0,25.0,1,07/13/2020
931,10784,27,27,5,bsgzqgdmavbm,itc,1191.0,13.0,30.0,218.0,1,07/13/2020
932,10785,29,29,5,bsgzqgdmavbm,itc,3928.0,5.0,25.0,16.0,1,07/13/2020
933,10786,31,31,5,bsgzqgdmavbm,itc,1234.0,34.0,80.0,33.0,1,07/13/2020
934,10787,33,33,5,bsgzqgdmavbm,itc,1611.0,49.0,50.0,127.0,0,07/13/2020
935,10788,35,35,5,bsgzqgdmavbm,itc,1659.0,11.0,30.0,108.0,1,07/13/2020
936,10789,37,37,5,bsgzqgdmavbm,itc,1172.0,46.0,50.0,87.0,1,07/13/2020
937,10790,39,39,5,bsgzqgdmavbm,itc,1475.0,34.0,35.0,183.0,0,07/13/2020
938,10791,41,41,5,bsgzqgdmavbm,itc,1007.0,4.0,25.0,128.0,1,07/13/2020
939,10792,43,43,5,bsgzqgdmavbm,itc,1450.0,50.0,55.0,40.0,1,07/13/2020
940,10793,45,45,5,bsgzqgdmavbm,itc,1163.0,43.0,75.0,124.0,1,07/13/2020
941,10794,47,47,5,bsgzqgdmavbm,itc,1075.0,10.0,60.0,122.0,1,07/13/2020
942,10795,49,49,5,bsgzqgdmavbm,itc,1942.0,23.0,25.0,87.0,0,07/13/2020
943,10796,51,51,5,bsgzqgdmavbm,itc,1566.0,46.0,85.0,53.0,1,07/13/2020
944,10797,53,53,5,bsgzqgdmavbm,itc,1113.0,25.0,55.0,75.0,1,07/13/2020
945,10798,55,55,5,bsgzqgdmavbm,itc,1101.0,25.0,75.0,8.0,1,07/13/2020
946,10799,57,57,5,bsgzqgdmavbm,itc,1219.0,30.0,60.0,10.0,1,07/13/2020
947,13311,8,8,6,bsgzqgdmavbm,itc,3124.0,13.0,30.0,218.0,1,07/13/2020
948,13312,10,10,6,bsgzqgdmavbm,itc,1212.0,60.0,75.0,100.0,1,07/13/2020
949,13313,12,12,6,bsgzqgdmavbm,itc,1413.0,34.0,85.0,250.0,1,07/13/2020
950,13314,14,14,6,bsgzqgdmavbm,itc,1677.0,77.0,80.0,39.0,1,07/13/2020
951,13315,16,16,6,bsgzqgdmavbm,itc,1540.0,39.0,50.0,47.0,1,07/13/2020
952,13316,18,18,6,bsgzqgdmavbm,itc,1253.0,34.0,80.0,33.0,1,07/13/2020
953,13317,20,20,6,bsgzqgdmavbm,itc,1151.0,32.0,75.0,84.0,1,07/13/2020
954,13318,22,22,6,bsgzqgdmavbm,itc,1984.0,54.0,55.0,116.0,0,07/13/2020
955,13319,24,24,6,bsgzqgdmavbm,itc,1069.0,20.0,80.0,12.0,1,07/13/2020
956,13320,26,26,6,bsgzqgdmavbm,itc,1574.0,59.0,60.0,17.0,1,07/13/2020
957,13321,28,28,6,bsgzqgdmavbm,itc,1031.0,5.0,55.0,244.0,1,07/13/2020
958,13322,30,30,6,bsgzqgdmavbm,itc,1336.0,10.0,25.0,15.0,1,07/13/2020
959,13323,32,32,6,bsgzqgdmavbm,itc,2357.0,10.0,35.0,10.0,1,07/13/2020
960,13324,34,34,6,bsgzqgdmavbm,itc,2151.0,31.0,35.0,129.0,1,07/13/2020
961,13325,36,36,6,bsgzqgdmavbm,itc,1399.0,72.0,75.0,104.0,1,07/13/2020
962,13326,38,38,6,bsgzqgdmavbm,itc,1405.0,40.0,50.0,100.0,1,07/13/2020
963,13327,40,40,6,bsgzqgdmavbm,itc,1188.0,50.0,85.0,7.0,1,07/13/2020
964,13328,42,42,6,bsgzqgdmavbm,itc,1174.0,25.0,30.0,80.0,1,07/13/2020
965,13329,44,44,6,bsgzqgdmavbm,itc,3234.0,82.0,85.0,229.0,1,07/13/2020
966,13330,46,46,6,bsgzqgdmavbm,itc,1022.0,20.0,60.0,8.0,1,07/13/2020
967,13331,48,48,6,bsgzqgdmavbm,itc,1407.0,11.0,30.0,108.0,1,07/13/2020
968,13332,50,50,6,bsgzqgdmavbm,itc,1301.0,52.0,55.0,144.0,1,07/13/2020
969,13333,52,52,6,bsgzqgdmavbm,itc,1380.0,4.0,25.0,128.0,1,07/13/2020
970,13334,54,54,6,bsgzqgdmavbm,itc,1593.0,24.0,25.0,104.0,1,07/13/2020
971,13335,56,56,6,bsgzqgdmavbm,itc,1192.0,20.0,60.0,125.0,1,07/13/2020
972,13336,58,58,6,bsgzqgdmavbm,itc,1260.0,25.0,50.0,10.0,1,07/13/2020
973,13337,60,60,6,bsgzqgdmavbm,itc,1807.0,34.0,35.0,183.0,0,07/13/2020
974,15687,5,5,7,bsgzqgdmavbm,itc,2745.0,78.0,80.0,64.0,0,07/13/2020
975,15688,7,7,7,bsgzqgdmavbm,itc,1075.0,46.0,85.0,53.0,1,07/13/2020
976,15689,9,9,7,bsgzqgdmavbm,itc,1456.0,27.0,30.0,111.0,0,07/13/2020
977,15690,11,11,7,bsgzqgdmavbm,itc,1140.0,49.0,50.0,127.0,0,07/13/2020
978,15691,13,13,7,bsgzqgdmavbm,itc,1340.0,58.0,60.0,86.0,0,07/13/2020
979,15692,15,15,7,bsgzqgdmavbm,itc,1203.0,4.0,25.0,128.0,1,07/13/2020
980,15693,17,17,7,bsgzqgdmavbm,itc,1925.0,25.0,55.0,12.0,1,07/13/2020
981,15694,19,19,7,bsgzqgdmavbm,itc,2158.0,20.0,60.0,8.0,1,07/13/2020
982,15695,21,21,7,bsgzqgdmavbm,itc,1163.0,6.0,25.0,198.0,1,07/13/2020
983,15696,23,23,7,bsgzqgdmavbm,itc,1613.0,28.0,35.0,100.0,1,07/13/2020
984,15697,25,25,7,bsgzqgdmavbm,itc,1537.0,23.0,35.0,87.0,1,07/13/2020
985,15698,27,27,7,bsgzqgdmavbm,itc,1024.0,19.0,50.0,102.0,1,07/13/2020
986,15699,29,29,7,bsgzqgdmavbm,itc,1275.0,40.0,80.0,10.0,1,07/13/2020
987,15700,31,31,7,bsgzqgdmavbm,itc,3035.0,50.0,55.0,40.0,1,07/13/2020
988,15701,33,33,7,bsgzqgdmavbm,itc,1518.0,64.0,80.0,100.0,1,07/13/2020
989,15702,35,35,7,bsgzqgdmavbm,itc,1226.0,10.0,25.0,15.0,1,07/13/2020
990,15703,37,37,7,bsgzqgdmavbm,itc,1586.0,43.0,75.0,124.0,1,07/13/2020
991,15704,39,39,7,bsgzqgdmavbm,itc,1444.0,25.0,75.0,8.0,1,07/13/2020
992,15705,41,41,7,bsgzqgdmavbm,itc,1155.0,69.0,75.0,87.0,1,07/13/2020
993,15706,43,43,7,bsgzqgdmavbm,itc,1014.0,10.0,60.0,122.0,1,07/13/2020
994,15707,45,45,7,bsgzqgdmavbm,itc,1818.0,31.0,55.0,129.0,1,07/13/2020
995,15708,47,47,7,bsgzqgdmavbm,itc,1989.0,29.0,30.0,215.0,0,07/13/2020
996,15709,49,49,7,bsgzqgdmavbm,itc,1330.0,54.0,85.0,14.0,1,07/13/2020
997,15710,51,51,7,bsgzqgdmavbm,itc,2517.0,82.0,85.0,229.0,0,07/13/2020
998,15711,53,53,7,bsgzqgdmavbm,itc,1555.0,10.0,30.0,8.0,1,07/13/2020
999,15712,55,55,7,bsgzqgdmavbm,itc,1898.0,32.0,35.0,234.0,0,07/13/2020
1000,15713,57,57,7,bsgzqgdmavbm,itc,1806.0,46.0,50.0,87.0,0,07/13/2020
1001,18090,5,5,8,bsgzqgdmavbm,itc,2491.0,73.0,75.0,171.0,0,07/13/2020
1002,18091,7,7,8,bsgzqgdmavbm,itc,2258.0,50.0,55.0,100.0,0,07/13/2020
1003,18092,9,9,8,bsgzqgdmavbm,itc,1056.0,49.0,50.0,127.0,0,07/13/2020
1004,18093,11,11,8,bsgzqgdmavbm,itc,1925.0,15.0,30.0,10.0,1,07/13/2020
1005,18094,13,13,8,bsgzqgdmavbm,itc,1022.0,10.0,35.0,10.0,1,07/13/2020
1006,18095,15,15,8,bsgzqgdmavbm,itc,1836.0,52.0,55.0,144.0,0,07/13/2020
1007,18096,17,17,8,bsgzqgdmavbm,itc,1439.0,64.0,80.0,100.0,1,07/13/2020
1008,18097,19,19,8,bsgzqgdmavbm,itc,1090.0,4.0,25.0,128.0,1,07/13/2020
1009,18098,21,21,8,bsgzqgdmavbm,itc,1074.0,8.0,50.0,128.0,1,07/13/2020
1010,18099,23,23,8,bsgzqgdmavbm,itc,1362.0,20.0,25.0,100.0,0,07/13/2020
1011,18100,25,25,8,bsgzqgdmavbm,itc,1118.0,24.0,25.0,260.0,0,07/13/2020
1012,18101,27,27,8,bsgzqgdmavbm,itc,1259.0,13.0,30.0,218.0,1,07/13/2020
1013,18102,29,29,8,bsgzqgdmavbm,itc,1076.0,25.0,55.0,12.0,1,07/13/2020
1014,18103,31,31,8,bsgzqgdmavbm,itc,1555.0,79.0,85.0,190.0,0,07/13/2020
1015,18104,33,33,8,bsgzqgdmavbm,itc,1172.0,25.0,35.0,25.0,1,07/13/2020
1016,18105,35,35,8,bsgzqgdmavbm,itc,1029.0,20.0,60.0,125.0,1,07/13/2020
1017,18106,37,37,8,bsgzqgdmavbm,itc,1018.0,20.0,85.0,13.0,1,07/13/2020
1018,18107,39,39,8,bsgzqgdmavbm,itc,1962.0,77.0,80.0,39.0,1,07/13/2020
1019,18108,41,41,8,bsgzqgdmavbm,itc,1216.0,54.0,85.0,14.0,1,07/13/2020
1020,18109,43,43,8,bsgzqgdmavbm,itc,1178.0,31.0,35.0,129.0,1,07/13/2020
1021,18110,45,45,8,bsgzqgdmavbm,itc,1545.0,40.0,50.0,100.0,1,07/13/2020
1022,18111,47,47,8,bsgzqgdmavbm,itc,1571.0,32.0,75.0,84.0,1,07/13/2020
1023,18112,49,49,8,bsgzqgdmavbm,itc,1054.0,20.0,60.0,8.0,1,07/13/2020
1024,18113,51,51,8,bsgzqgdmavbm,itc,1063.0,43.0,75.0,124.0,1,07/13/2020
1025,18114,53,53,8,bsgzqgdmavbm,itc,1176.0,40.0,80.0,10.0,1,07/13/2020
1026,18115,55,55,8,bsgzqgdmavbm,itc,1121.0,29.0,30.0,86.0,0,07/13/2020
1027,18116,57,57,8,bsgzqgdmavbm,itc,1172.0,53.0,60.0,22.0,1,07/13/2020
1028,20520,5,5,9,bsgzqgdmavbm,itc,2515.0,54.0,85.0,14.0,1,07/13/2020
1029,20521,7,7,9,bsgzqgdmavbm,itc,1117.0,5.0,30.0,122.0,1,07/13/2020
1030,20522,9,9,9,bsgzqgdmavbm,itc,1488.0,69.0,75.0,87.0,1,07/13/2020
1031,20523,11,11,9,bsgzqgdmavbm,itc,1668.0,58.0,60.0,86.0,0,07/13/2020
1032,20524,13,13,9,bsgzqgdmavbm,itc,3847.0,31.0,35.0,129.0,1,07/13/2020
1033,20525,15,15,9,bsgzqgdmavbm,itc,2617.0,5.0,55.0,244.0,1,07/13/2020
1034,20526,17,17,9,bsgzqgdmavbm,itc,1303.0,20.0,25.0,100.0,1,07/13/2020
1035,20527,19,19,9,bsgzqgdmavbm,itc,1052.0,50.0,80.0,100.0,1,07/13/2020
1036,20528,21,21,9,bsgzqgdmavbm,itc,1197.0,11.0,30.0,108.0,1,07/13/2020
1037,20529,23,23,9,bsgzqgdmavbm,itc,1217.0,24.0,25.0,104.0,0,07/13/2020
1038,20530,25,25,9,bsgzqgdmavbm,itc,1098.0,25.0,55.0,12.0,1,07/13/2020
1039,20531,27,27,9,bsgzqgdmavbm,itc,1146.0,39.0,50.0,47.0,1,07/13/2020
1040,20532,29,29,9,bsgzqgdmavbm,itc,1069.0,20.0,60.0,8.0,1,07/13/2020
1041,20533,31,31,9,bsgzqgdmavbm,itc,1209.0,40.0,80.0,10.0,1,07/13/2020
1042,20534,33,33,9,bsgzqgdmavbm,itc,1438.0,40.0,50.0,100.0,1,07/13/2020
1043,20535,35,35,9,bsgzqgdmavbm,itc,1059.0,14.0,25.0,131.0,1,07/13/2020
1044,20536,37,37,9,bsgzqgdmavbm,itc,1649.0,29.0,30.0,215.0,0,07/13/2020
1045,20537,39,39,9,bsgzqgdmavbm,itc,1954.0,14.0,35.0,15.0,1,07/13/2020
1046,20538,41,41,9,bsgzqgdmavbm,itc,1128.0,25.0,75.0,8.0,1,07/13/2020
1047,20539,43,43,9,bsgzqgdmavbm,itc,2799.0,59.0,60.0,17.0,0,07/13/2020
1048,20540,45,45,9,bsgzqgdmavbm,itc,1075.0,79.0,85.0,190.0,1,07/13/2020
1049,20541,47,47,9,bsgzqgdmavbm,itc,1526.0,10.0,35.0,10.0,1,07/13/2020
1050,20542,49,49,9,bsgzqgdmavbm,itc,1350.0,54.0,55.0,116.0,0,07/13/2020
1051,20543,51,51,9,bsgzqgdmavbm,itc,1507.0,73.0,75.0,171.0,0,07/13/2020
1052,20544,53,53,9,bsgzqgdmavbm,itc,1130.0,19.0,50.0,102.0,1,07/13/2020
1053,20545,55,55,9,bsgzqgdmavbm,itc,1132.0,46.0,85.0,53.0,1,07/13/2020
1054,20546,57,57,9,bsgzqgdmavbm,itc,1541.0,64.0,80.0,100.0,1,07/13/2020
1055,81,5,5,1,bxlolrbjieus,itc,2129.0,27.0,30.0,111.0,0,07/13/2020
1056,82,7,7,1,bxlolrbjieus,itc,1397.0,31.0,55.0,129.0,1,07/13/2020
1057,83,9,9,1,bxlolrbjieus,itc,1191.0,32.0,35.0,234.0,0,07/13/2020
1058,84,11,11,1,bxlolrbjieus,itc,1094.0,25.0,35.0,25.0,1,07/13/2020
1059,85,13,13,1,bxlolrbjieus,itc,1022.0,49.0,50.0,127.0,0,07/13/2020
1060,86,15,15,1,bxlolrbjieus,itc,2030.0,20.0,25.0,100.0,0,07/13/2020
1061,87,17,17,1,bxlolrbjieus,itc,1719.0,82.0,85.0,229.0,0,07/13/2020
1062,88,19,19,1,bxlolrbjieus,itc,1334.0,69.0,75.0,87.0,0,07/13/2020
1063,89,21,21,1,bxlolrbjieus,itc,1485.0,13.0,30.0,218.0,0,07/13/2020
1064,90,23,23,1,bxlolrbjieus,itc,1446.0,46.0,50.0,87.0,0,07/13/2020
1065,91,25,25,1,bxlolrbjieus,itc,1127.0,10.0,35.0,10.0,1,07/13/2020
1066,92,27,27,1,bxlolrbjieus,itc,1525.0,32.0,75.0,84.0,1,07/13/2020
1067,93,29,29,1,bxlolrbjieus,itc,1931.0,50.0,80.0,100.0,1,07/13/2020
1068,94,31,31,1,bxlolrbjieus,itc,1623.0,5.0,55.0,244.0,1,07/13/2020
1069,95,33,33,1,bxlolrbjieus,itc,1278.0,25.0,50.0,10.0,1,07/13/2020
1070,97,37,37,1,bxlolrbjieus,itc,1772.0,58.0,60.0,86.0,0,07/13/2020
1071,98,39,39,1,bxlolrbjieus,itc,2022.0,25.0,55.0,75.0,1,07/13/2020
1072,99,41,41,1,bxlolrbjieus,itc,1486.0,80.0,85.0,25.0,0,07/13/2020
1073,100,43,43,1,bxlolrbjieus,itc,1767.0,10.0,25.0,15.0,1,07/13/2020
1074,101,45,45,1,bxlolrbjieus,itc,1949.0,5.0,30.0,122.0,1,07/13/2020
1075,102,47,47,1,bxlolrbjieus,itc,2246.0,25.0,75.0,8.0,1,07/13/2020
1076,103,49,49,1,bxlolrbjieus,itc,1948.0,40.0,80.0,10.0,1,07/13/2020
1077,104,51,51,1,bxlolrbjieus,itc,1519.0,24.0,25.0,260.0,0,07/13/2020
1078,105,53,53,1,bxlolrbjieus,itc,1383.0,79.0,85.0,190.0,0,07/13/2020
1079,106,55,55,1,bxlolrbjieus,itc,1630.0,50.0,60.0,80.0,0,07/13/2020
1080,107,57,57,1,bxlolrbjieus,itc,1077.0,34.0,80.0,33.0,1,07/13/2020
1081,2943,5,5,2,bxlolrbjieus,itc,2443.0,25.0,35.0,25.0,1,07/13/2020
1082,2944,7,7,2,bxlolrbjieus,itc,1248.0,27.0,30.0,111.0,0,07/13/2020
1083,2945,9,9,2,bxlolrbjieus,itc,2553.0,14.0,25.0,131.0,0,07/13/2020
1084,2946,11,11,2,bxlolrbjieus,itc,1514.0,20.0,60.0,125.0,1,07/13/2020
1085,2947,13,13,2,bxlolrbjieus,itc,1392.0,80.0,85.0,25.0,0,07/13/2020
1086,2948,15,15,2,bxlolrbjieus,itc,1945.0,28.0,35.0,100.0,0,07/13/2020
1087,2949,17,17,2,bxlolrbjieus,itc,1584.0,20.0,60.0,8.0,1,07/13/2020
1088,2950,19,19,2,bxlolrbjieus,itc,2489.0,39.0,50.0,47.0,1,07/13/2020
1089,2951,21,21,2,bxlolrbjieus,itc,1258.0,77.0,80.0,39.0,0,07/13/2020
1090,2952,23,23,2,bxlolrbjieus,itc,1550.0,78.0,80.0,64.0,0,07/13/2020
1091,2953,25,25,2,bxlolrbjieus,itc,1186.0,40.0,80.0,10.0,1,07/13/2020
1092,2954,27,27,2,bxlolrbjieus,itc,1689.0,32.0,75.0,84.0,1,07/13/2020
1093,2955,29,29,2,bxlolrbjieus,itc,2072.0,49.0,50.0,51.0,0,07/13/2020
1094,2956,31,31,2,bxlolrbjieus,itc,1434.0,50.0,55.0,40.0,0,07/13/2020
1095,2957,33,33,2,bxlolrbjieus,itc,1384.0,15.0,30.0,10.0,1,07/13/2020
1096,2958,35,35,2,bxlolrbjieus,itc,4993.0,5.0,30.0,122.0,1,07/13/2020
1097,2959,37,37,2,bxlolrbjieus,itc,4555.0,25.0,55.0,12.0,1,07/13/2020
1098,2960,39,39,2,bxlolrbjieus,itc,2215.0,59.0,60.0,17.0,0,07/13/2020
1099,2961,41,41,2,bxlolrbjieus,itc,1679.0,43.0,75.0,124.0,1,07/13/2020
1100,2962,43,43,2,bxlolrbjieus,itc,1570.0,5.0,25.0,16.0,1,07/13/2020
1101,2963,45,45,2,bxlolrbjieus,itc,1418.0,32.0,35.0,234.0,0,07/13/2020
1102,2964,47,47,2,bxlolrbjieus,itc,1603.0,25.0,75.0,8.0,1,07/13/2020
1103,2965,49,49,2,bxlolrbjieus,itc,2073.0,54.0,85.0,14.0,1,07/13/2020
1104,2966,51,51,2,bxlolrbjieus,itc,1793.0,82.0,85.0,229.0,0,07/13/2020
1105,2967,53,53,2,bxlolrbjieus,itc,1946.0,24.0,25.0,260.0,0,07/13/2020
1106,2968,55,55,2,bxlolrbjieus,itc,2362.0,54.0,55.0,116.0,0,07/13/2020
1107,2969,57,57,2,bxlolrbjieus,itc,1991.0,8.0,50.0,128.0,1,07/13/2020
1108,5643,5,5,3,bxlolrbjieus,itc,2654.0,27.0,30.0,111.0,0,07/13/2020
1109,5644,7,7,3,bxlolrbjieus,itc,1032.0,54.0,55.0,116.0,0,07/13/2020
1110,5645,9,9,3,bxlolrbjieus,itc,1447.0,5.0,55.0,244.0,1,07/13/2020
1111,5646,11,11,3,bxlolrbjieus,itc,1976.0,46.0,50.0,87.0,0,07/13/2020
1112,5647,13,13,3,bxlolrbjieus,itc,1040.0,34.0,35.0,183.0,0,07/13/2020
1113,5648,15,15,3,bxlolrbjieus,itc,1112.0,10.0,50.0,16.0,1,07/13/2020
1114,5649,17,17,3,bxlolrbjieus,itc,1066.0,32.0,35.0,234.0,0,07/13/2020
1115,5650,19,19,3,bxlolrbjieus,itc,1752.0,6.0,25.0,198.0,1,07/13/2020
1116,5651,21,21,3,bxlolrbjieus,itc,1912.0,78.0,80.0,64.0,0,07/13/2020
1117,5652,23,23,3,bxlolrbjieus,itc,1305.0,46.0,85.0,53.0,1,07/13/2020
1118,5653,25,25,3,bxlolrbjieus,itc,1385.0,20.0,25.0,100.0,0,07/13/2020
1119,5654,27,27,3,bxlolrbjieus,itc,1473.0,4.0,25.0,128.0,1,07/13/2020
1120,5655,29,29,3,bxlolrbjieus,itc,1616.0,31.0,55.0,129.0,1,07/13/2020
1121,5656,31,31,3,bxlolrbjieus,itc,1513.0,82.0,85.0,229.0,0,07/13/2020
1122,5657,33,33,3,bxlolrbjieus,itc,1298.0,10.0,35.0,10.0,1,07/13/2020
1123,5658,35,35,3,bxlolrbjieus,itc,1562.0,13.0,30.0,218.0,0,07/13/2020
1124,5659,37,37,3,bxlolrbjieus,itc,1410.0,25.0,75.0,8.0,1,07/13/2020
1125,5660,39,39,3,bxlolrbjieus,itc,1004.0,34.0,80.0,33.0,1,07/13/2020
1126,5661,41,41,3,bxlolrbjieus,itc,1159.0,20.0,60.0,125.0,1,07/13/2020
1127,5662,43,43,3,bxlolrbjieus,itc,1111.0,15.0,30.0,10.0,1,07/13/2020
1128,5663,45,45,3,bxlolrbjieus,itc,2026.0,30.0,60.0,10.0,1,07/13/2020
1129,5664,47,47,3,bxlolrbjieus,itc,1264.0,43.0,75.0,124.0,1,07/13/2020
1130,5665,49,49,3,bxlolrbjieus,itc,1241.0,79.0,85.0,76.0,0,07/13/2020
1131,5666,51,51,3,bxlolrbjieus,itc,1529.0,64.0,80.0,100.0,0,07/13/2020
1132,5667,53,53,3,bxlolrbjieus,itc,1136.0,30.0,75.0,15.0,1,07/13/2020
1133,5668,55,55,3,bxlolrbjieus,itc,1319.0,50.0,60.0,80.0,0,07/13/2020
1134,5669,57,57,3,bxlolrbjieus,itc,1392.0,49.0,50.0,51.0,0,07/13/2020
1135,8235,5,5,4,bxlolrbjieus,itc,2616.0,30.0,75.0,15.0,1,07/13/2020
1136,8236,7,7,4,bxlolrbjieus,itc,3057.0,50.0,55.0,40.0,0,07/13/2020
1137,8237,9,9,4,bxlolrbjieus,itc,1737.0,23.0,35.0,87.0,0,07/13/2020
1138,8238,11,11,4,bxlolrbjieus,itc,1308.0,15.0,30.0,10.0,1,07/13/2020
1139,8239,13,13,4,bxlolrbjieus,itc,1278.0,34.0,80.0,33.0,1,07/13/2020
1140,8240,15,15,4,bxlolrbjieus,itc,1808.0,29.0,30.0,86.0,0,07/13/2020
1141,8241,17,17,4,bxlolrbjieus,itc,1474.0,4.0,25.0,128.0,1,07/13/2020
1142,8242,19,19,4,bxlolrbjieus,itc,1703.0,10.0,60.0,122.0,1,07/13/2020
1143,8243,21,21,4,bxlolrbjieus,itc,1296.0,79.0,85.0,190.0,0,07/13/2020
1144,8244,23,23,4,bxlolrbjieus,itc,1496.0,25.0,55.0,12.0,1,07/13/2020
1145,8245,25,25,4,bxlolrbjieus,itc,1441.0,59.0,60.0,106.0,0,07/13/2020
1146,8246,27,27,4,bxlolrbjieus,itc,1768.0,19.0,50.0,102.0,1,07/13/2020
1147,8247,29,29,4,bxlolrbjieus,itc,1394.0,69.0,75.0,87.0,0,07/13/2020
1148,8248,31,31,4,bxlolrbjieus,itc,1651.0,80.0,85.0,25.0,0,07/13/2020
1149,8249,33,33,4,bxlolrbjieus,itc,3776.0,25.0,35.0,25.0,1,07/13/2020
1150,8250,35,35,4,bxlolrbjieus,itc,1271.0,31.0,35.0,129.0,0,07/13/2020
1151,8251,37,37,4,bxlolrbjieus,itc,1088.0,46.0,50.0,87.0,0,07/13/2020
1152,8252,39,39,4,bxlolrbjieus,itc,1761.0,34.0,85.0,250.0,1,07/13/2020
1153,8253,41,41,4,bxlolrbjieus,itc,1412.0,52.0,55.0,144.0,0,07/13/2020
1154,8254,43,43,4,bxlolrbjieus,itc,1374.0,20.0,80.0,12.0,1,07/13/2020
1155,8255,45,45,4,bxlolrbjieus,itc,1719.0,10.0,50.0,16.0,1,07/13/2020
1156,8256,47,47,4,bxlolrbjieus,itc,1133.0,73.0,75.0,171.0,0,07/13/2020
1157,8257,49,49,4,bxlolrbjieus,itc,1096.0,5.0,25.0,16.0,1,07/13/2020
1158,8258,51,51,4,bxlolrbjieus,itc,1466.0,24.0,25.0,260.0,0,07/13/2020
1159,8259,53,53,4,bxlolrbjieus,itc,1284.0,33.0,80.0,89.0,1,07/13/2020
1160,8260,55,55,4,bxlolrbjieus,itc,1807.0,53.0,60.0,22.0,0,07/13/2020
1161,8261,57,57,4,bxlolrbjieus,itc,1297.0,25.0,30.0,80.0,0,07/13/2020
1162,10800,5,5,5,bxlolrbjieus,itc,1785.0,24.0,25.0,260.0,0,07/13/2020
1163,10801,7,7,5,bxlolrbjieus,itc,1570.0,80.0,85.0,25.0,0,07/13/2020
1164,10802,9,9,5,bxlolrbjieus,itc,1619.0,14.0,35.0,15.0,1,07/13/2020
1165,10803,11,11,5,bxlolrbjieus,itc,3559.0,29.0,30.0,86.0,0,07/13/2020
1166,10804,13,13,5,bxlolrbjieus,itc,1627.0,78.0,80.0,64.0,0,07/13/2020
1167,10805,15,15,5,bxlolrbjieus,itc,2931.0,4.0,25.0,128.0,1,07/13/2020
1168,10806,17,17,5,bxlolrbjieus,itc,3702.0,19.0,50.0,102.0,1,07/13/2020
1169,10807,19,19,5,bxlolrbjieus,itc,2333.0,69.0,75.0,87.0,0,07/13/2020
1170,10808,21,21,5,bxlolrbjieus,itc,2641.0,23.0,35.0,87.0,0,07/13/2020
1171,10809,23,23,5,bxlolrbjieus,itc,1646.0,59.0,60.0,106.0,0,07/13/2020
1172,10810,25,25,5,bxlolrbjieus,itc,4242.0,58.0,60.0,86.0,0,07/13/2020
1173,10811,27,27,5,bxlolrbjieus,itc,3669.0,25.0,75.0,8.0,1,07/13/2020
1174,10812,29,29,5,bxlolrbjieus,itc,2966.0,73.0,75.0,171.0,0,07/13/2020
1175,10813,31,31,5,bxlolrbjieus,itc,1634.0,34.0,80.0,33.0,1,07/13/2020
1176,10814,33,33,5,bxlolrbjieus,itc,4206.0,46.0,85.0,53.0,1,07/13/2020
1177,10815,35,35,5,bxlolrbjieus,itc,3799.0,50.0,55.0,100.0,0,07/13/2020
1178,10816,37,37,5,bxlolrbjieus,itc,3302.0,25.0,50.0,10.0,1,07/13/2020
1179,10817,39,39,5,bxlolrbjieus,itc,4190.0,10.0,35.0,10.0,1,07/13/2020
1180,10818,41,41,5,bxlolrbjieus,itc,3774.0,20.0,55.0,7.0,1,07/13/2020
1181,10819,43,43,5,bxlolrbjieus,itc,2766.0,40.0,80.0,10.0,1,07/13/2020
1182,10820,45,45,5,bxlolrbjieus,itc,1609.0,8.0,50.0,128.0,1,07/13/2020
1183,10821,47,47,5,bxlolrbjieus,itc,1370.0,25.0,30.0,80.0,0,07/13/2020
1184,10822,49,49,5,bxlolrbjieus,itc,2164.0,6.0,25.0,198.0,1,07/13/2020
1185,10823,51,51,5,bxlolrbjieus,itc,2026.0,31.0,55.0,129.0,1,07/13/2020
1186,10824,53,53,5,bxlolrbjieus,itc,1711.0,50.0,60.0,80.0,0,07/13/2020
1187,10825,55,55,5,bxlolrbjieus,itc,1027.0,27.0,30.0,111.0,0,07/13/2020
1188,10826,57,57,5,bxlolrbjieus,itc,1894.0,34.0,85.0,250.0,1,07/13/2020
1189,13338,5,5,6,bxlolrbjieus,itc,2023.0,10.0,35.0,61.0,1,07/13/2020
1190,13339,7,7,6,bxlolrbjieus,itc,2975.0,40.0,50.0,100.0,0,07/13/2020
1191,13340,9,9,6,bxlolrbjieus,itc,2479.0,24.0,25.0,260.0,0,07/13/2020
1192,13341,11,11,6,bxlolrbjieus,itc,1722.0,69.0,75.0,87.0,0,07/13/2020
1193,13342,13,13,6,bxlolrbjieus,itc,1590.0,34.0,80.0,33.0,1,07/13/2020
1194,13343,15,15,6,bxlolrbjieus,itc,1650.0,11.0,30.0,108.0,1,07/13/2020
1195,13344,17,17,6,bxlolrbjieus,itc,1203.0,52.0,55.0,144.0,0,07/13/2020
1196,13345,19,19,6,bxlolrbjieus,itc,1282.0,15.0,30.0,10.0,1,07/13/2020
1197,13346,21,21,6,bxlolrbjieus,itc,4941.0,31.0,55.0,129.0,1,07/13/2020
1198,13347,23,23,6,bxlolrbjieus,itc,1187.0,30.0,60.0,10.0,1,07/13/2020
1199,13348,25,25,6,bxlolrbjieus,itc,1104.0,78.0,80.0,64.0,0,07/13/2020
1200,13349,27,27,6,bxlolrbjieus,itc,1332.0,60.0,75.0,100.0,0,07/13/2020
1201,13350,29,29,6,bxlolrbjieus,itc,1056.0,20.0,85.0,13.0,1,07/13/2020
1202,13351,31,31,6,bxlolrbjieus,itc,1959.0,13.0,30.0,218.0,0,07/13/2020
1203,13352,33,33,6,bxlolrbjieus,itc,1263.0,20.0,55.0,7.0,1,07/13/2020
1204,13353,35,35,6,bxlolrbjieus,itc,1125.0,46.0,85.0,53.0,1,07/13/2020
1205,13354,37,37,6,bxlolrbjieus,itc,1070.0,20.0,60.0,125.0,1,07/13/2020
1206,13355,39,39,6,bxlolrbjieus,itc,1563.0,73.0,75.0,171.0,0,07/13/2020
1207,13356,41,41,6,bxlolrbjieus,itc,3655.0,59.0,60.0,17.0,0,07/13/2020
1208,13357,43,43,6,bxlolrbjieus,itc,2082.0,23.0,25.0,87.0,0,07/13/2020
1209,13358,45,45,6,bxlolrbjieus,itc,1186.0,8.0,50.0,128.0,1,07/13/2020
1210,13359,47,47,6,bxlolrbjieus,itc,1190.0,28.0,35.0,100.0,0,07/13/2020
1211,13360,49,49,6,bxlolrbjieus,itc,3225.0,50.0,80.0,100.0,1,07/13/2020
1212,13361,51,51,6,bxlolrbjieus,itc,1253.0,10.0,35.0,10.0,1,07/13/2020
1213,13362,53,53,6,bxlolrbjieus,itc,1319.0,50.0,85.0,7.0,1,07/13/2020
1214,13363,55,55,6,bxlolrbjieus,itc,1318.0,24.0,25.0,104.0,0,07/13/2020
1215,13364,57,57,6,bxlolrbjieus,itc,1025.0,49.0,50.0,127.0,0,07/13/2020
1216,15714,5,5,7,bxlolrbjieus,itc,3023.0,25.0,35.0,25.0,1,07/13/2020
1217,15715,7,7,7,bxlolrbjieus,itc,1651.0,20.0,25.0,100.0,1,07/13/2020
1218,15716,9,9,7,bxlolrbjieus,itc,1350.0,25.0,50.0,10.0,1,07/13/2020
1219,15717,11,11,7,bxlolrbjieus,itc,1690.0,15.0,30.0,10.0,1,07/13/2020
1220,15718,13,13,7,bxlolrbjieus,itc,1250.0,10.0,35.0,10.0,1,07/13/2020
1221,15719,15,15,7,bxlolrbjieus,itc,1272.0,34.0,80.0,33.0,1,07/13/2020
1222,15720,17,17,7,bxlolrbjieus,itc,1059.0,31.0,55.0,129.0,1,07/13/2020
1223,15721,19,19,7,bxlolrbjieus,itc,2273.0,14.0,25.0,131.0,1,07/13/2020
1224,15722,21,21,7,bxlolrbjieus,itc,1213.0,30.0,75.0,15.0,1,07/13/2020
1225,15723,23,23,7,bxlolrbjieus,itc,1359.0,10.0,50.0,16.0,1,07/13/2020
1226,15724,25,25,7,bxlolrbjieus,itc,2531.0,59.0,60.0,17.0,0,07/13/2020
1227,15725,27,27,7,bxlolrbjieus,itc,1594.0,69.0,75.0,87.0,0,07/13/2020
1228,15726,29,29,7,bxlolrbjieus,itc,3477.0,50.0,60.0,80.0,0,07/13/2020
1229,15727,31,31,7,bxlolrbjieus,itc,1293.0,50.0,80.0,100.0,1,07/13/2020
1230,15728,33,33,7,bxlolrbjieus,itc,1565.0,5.0,55.0,244.0,1,07/13/2020
1231,15729,35,35,7,bxlolrbjieus,itc,1815.0,73.0,75.0,171.0,0,07/13/2020
1232,15730,37,37,7,bxlolrbjieus,itc,1346.0,20.0,85.0,13.0,1,07/13/2020
1233,15731,39,39,7,bxlolrbjieus,itc,1746.0,79.0,85.0,190.0,0,07/13/2020
1234,15732,41,41,7,bxlolrbjieus,itc,3261.0,29.0,30.0,215.0,0,07/13/2020
1235,15733,43,43,7,bxlolrbjieus,itc,1517.0,24.0,25.0,104.0,0,07/13/2020
1236,15734,45,45,7,bxlolrbjieus,itc,1216.0,54.0,55.0,116.0,0,07/13/2020
1237,15735,47,47,7,bxlolrbjieus,itc,1340.0,49.0,50.0,51.0,0,07/13/2020
1238,15736,49,49,7,bxlolrbjieus,itc,2015.0,20.0,60.0,125.0,1,07/13/2020
1239,15737,51,51,7,bxlolrbjieus,itc,1227.0,27.0,30.0,111.0,0,07/13/2020
1240,15738,53,53,7,bxlolrbjieus,itc,1081.0,33.0,80.0,89.0,1,07/13/2020
1241,15739,55,55,7,bxlolrbjieus,itc,1039.0,80.0,85.0,25.0,0,07/13/2020
1242,15740,57,57,7,bxlolrbjieus,itc,1296.0,10.0,35.0,61.0,1,07/13/2020
1243,18117,5,5,8,bxlolrbjieus,itc,2068.0,33.0,80.0,89.0,1,07/13/2020
1244,18118,7,7,8,bxlolrbjieus,itc,1420.0,12.0,75.0,128.0,1,07/13/2020
1245,18119,9,9,8,bxlolrbjieus,itc,2162.0,79.0,85.0,76.0,0,07/13/2020
1246,18120,11,11,8,bxlolrbjieus,itc,1609.0,72.0,75.0,104.0,0,07/13/2020
1247,18121,13,13,8,bxlolrbjieus,itc,1562.0,50.0,80.0,100.0,1,07/13/2020
1248,18122,15,15,8,bxlolrbjieus,itc,1313.0,10.0,30.0,8.0,1,07/13/2020
1249,18123,17,17,8,bxlolrbjieus,itc,1286.0,25.0,55.0,12.0,1,07/13/2020
1250,18124,19,19,8,bxlolrbjieus,itc,2133.0,6.0,25.0,198.0,1,07/13/2020
1251,18125,21,21,8,bxlolrbjieus,itc,1715.0,34.0,35.0,183.0,0,07/13/2020
1252,18126,23,23,8,bxlolrbjieus,itc,1845.0,14.0,35.0,15.0,1,07/13/2020
1253,18127,25,25,8,bxlolrbjieus,itc,1541.0,10.0,35.0,61.0,1,07/13/2020
1254,18128,27,27,8,bxlolrbjieus,itc,1469.0,80.0,85.0,25.0,0,07/13/2020
1255,18129,29,29,8,bxlolrbjieus,itc,1295.0,27.0,30.0,111.0,0,07/13/2020
1256,18130,31,31,8,bxlolrbjieus,itc,1297.0,20.0,55.0,7.0,1,07/13/2020
1257,18131,33,33,8,bxlolrbjieus,itc,1128.0,79.0,80.0,79.0,0,07/13/2020
1258,18132,35,35,8,bxlolrbjieus,itc,1275.0,50.0,85.0,7.0,1,07/13/2020
1259,18133,37,37,8,bxlolrbjieus,itc,1392.0,40.0,50.0,100.0,0,07/13/2020
1260,18134,39,39,8,bxlolrbjieus,itc,1858.0,10.0,60.0,122.0,1,07/13/2020
1261,18135,41,41,8,bxlolrbjieus,itc,1850.0,50.0,55.0,100.0,0,07/13/2020
1262,18136,43,43,8,bxlolrbjieus,itc,1640.0,20.0,25.0,100.0,0,07/13/2020
1263,18137,45,45,8,bxlolrbjieus,itc,1244.0,59.0,60.0,106.0,0,07/13/2020
1264,18138,47,47,8,bxlolrbjieus,itc,2340.0,14.0,25.0,131.0,0,07/13/2020
1265,18139,49,49,8,bxlolrbjieus,itc,1329.0,25.0,75.0,8.0,1,07/13/2020
1266,18140,51,51,8,bxlolrbjieus,itc,1291.0,39.0,50.0,47.0,1,07/13/2020
1267,18141,53,53,8,bxlolrbjieus,itc,1103.0,29.0,30.0,86.0,0,07/13/2020
1268,18142,55,55,8,bxlolrbjieus,itc,1127.0,20.0,60.0,125.0,1,07/13/2020
1269,18143,57,57,8,bxlolrbjieus,itc,1089.0,49.0,50.0,51.0,0,07/13/2020
1270,20547,5,5,9,bxlolrbjieus,itc,2794.0,8.0,50.0,128.0,1,07/13/2020
1271,20548,7,7,9,bxlolrbjieus,itc,2306.0,40.0,50.0,100.0,0,07/13/2020
1272,20549,9,9,9,bxlolrbjieus,itc,5817.0,27.0,30.0,111.0,0,07/13/2020
1273,20550,11,11,9,bxlolrbjieus,itc,1734.0,40.0,80.0,10.0,1,07/13/2020
1274,20551,13,13,9,bxlolrbjieus,itc,1396.0,78.0,80.0,64.0,0,07/13/2020
1275,20552,15,15,9,bxlolrbjieus,itc,2475.0,54.0,85.0,14.0,1,07/13/2020
1276,20553,17,17,9,bxlolrbjieus,itc,7826.0,80.0,85.0,25.0,0,07/13/2020
1277,20554,19,19,9,bxlolrbjieus,itc,1748.0,73.0,75.0,171.0,0,07/13/2020
1278,20555,21,21,9,bxlolrbjieus,itc,2167.0,25.0,55.0,12.0,1,07/13/2020
1279,20556,23,23,9,bxlolrbjieus,itc,1699.0,20.0,60.0,125.0,1,07/13/2020
1280,20558,27,27,9,bxlolrbjieus,itc,1712.0,25.0,75.0,8.0,1,07/13/2020
1281,20559,29,29,9,bxlolrbjieus,itc,1785.0,46.0,85.0,53.0,1,07/13/2020
1282,20560,31,31,9,bxlolrbjieus,itc,1200.0,59.0,60.0,106.0,0,07/13/2020
1283,20561,33,33,9,bxlolrbjieus,itc,9720.0,20.0,60.0,8.0,1,07/13/2020
1284,20562,35,35,9,bxlolrbjieus,itc,2392.0,15.0,30.0,10.0,1,07/13/2020
1285,20563,37,37,9,bxlolrbjieus,itc,1563.0,69.0,75.0,87.0,0,07/13/2020
1286,20564,39,39,9,bxlolrbjieus,itc,3603.0,10.0,35.0,61.0,1,07/13/2020
1287,20566,43,43,9,bxlolrbjieus,itc,1143.0,24.0,25.0,260.0,0,07/13/2020
1288,20567,45,45,9,bxlolrbjieus,itc,2315.0,50.0,55.0,100.0,0,07/13/2020
1289,20568,47,47,9,bxlolrbjieus,itc,2831.0,6.0,25.0,198.0,1,07/13/2020
1290,20569,49,49,9,bxlolrbjieus,itc,2537.0,32.0,35.0,234.0,0,07/13/2020
1291,20570,51,51,9,bxlolrbjieus,itc,1582.0,28.0,35.0,100.0,0,07/13/2020
1292,20571,53,53,9,bxlolrbjieus,itc,6323.0,13.0,30.0,218.0,1,07/13/2020
1293,20572,55,55,9,bxlolrbjieus,itc,1303.0,52.0,55.0,144.0,0,07/13/2020
1294,20573,57,57,9,bxlolrbjieus,itc,8206.0,39.0,50.0,47.0,1,07/13/2020
1295,22977,5,5,10,bxlolrbjieus,itc,2961.0,40.0,50.0,100.0,1,07/13/2020
1296,22978,7,7,10,bxlolrbjieus,itc,2237.0,79.0,85.0,76.0,0,07/13/2020
1297,22979,9,9,10,bxlolrbjieus,itc,1452.0,10.0,35.0,61.0,1,07/13/2020
1298,22980,11,11,10,bxlolrbjieus,itc,1343.0,73.0,75.0,171.0,0,07/13/2020
1299,22981,13,13,10,bxlolrbjieus,itc,1854.0,53.0,60.0,22.0,0,07/13/2020
1300,22982,15,15,10,bxlolrbjieus,itc,1641.0,10.0,25.0,15.0,1,07/13/2020
1301,22983,17,17,10,bxlolrbjieus,itc,1441.0,80.0,85.0,25.0,0,07/13/2020
1302,22984,19,19,10,bxlolrbjieus,itc,3290.0,11.0,30.0,108.0,1,07/13/2020
1303,22985,21,21,10,bxlolrbjieus,itc,2016.0,27.0,30.0,111.0,0,07/13/2020
1304,22986,23,23,10,bxlolrbjieus,itc,2249.0,20.0,80.0,12.0,1,07/13/2020
1305,22987,25,25,10,bxlolrbjieus,itc,3057.0,24.0,25.0,104.0,0,07/13/2020
1306,22988,27,27,10,bxlolrbjieus,itc,1778.0,72.0,75.0,104.0,0,07/13/2020
1307,22989,29,29,10,bxlolrbjieus,itc,1707.0,52.0,55.0,144.0,0,07/13/2020
1308,22990,31,31,10,bxlolrbjieus,itc,1401.0,28.0,35.0,100.0,0,07/13/2020
1309,22991,33,33,10,bxlolrbjieus,itc,6134.0,13.0,30.0,218.0,1,07/13/2020
1310,22992,35,35,10,bxlolrbjieus,itc,1705.0,50.0,55.0,100.0,0,07/13/2020
1311,22993,37,37,10,bxlolrbjieus,itc,9266.0,20.0,60.0,8.0,1,07/13/2020
1312,22994,39,39,10,bxlolrbjieus,itc,1432.0,10.0,35.0,10.0,1,07/13/2020
1313,22995,41,41,10,bxlolrbjieus,itc,1264.0,30.0,60.0,10.0,1,07/13/2020
1314,22996,43,43,10,bxlolrbjieus,itc,1691.0,8.0,50.0,128.0,1,07/13/2020
1315,22997,45,45,10,bxlolrbjieus,itc,4272.0,30.0,75.0,15.0,1,07/13/2020
1316,22998,47,47,10,bxlolrbjieus,itc,1002.0,24.0,25.0,260.0,0,07/13/2020
1317,22999,49,49,10,bxlolrbjieus,itc,1265.0,25.0,55.0,75.0,1,07/13/2020
1318,23000,51,51,10,bxlolrbjieus,itc,1436.0,34.0,80.0,33.0,1,07/13/2020
1319,23001,53,53,10,bxlolrbjieus,itc,1626.0,50.0,80.0,100.0,1,07/13/2020
1320,23002,55,55,10,bxlolrbjieus,itc,2128.0,49.0,50.0,127.0,0,07/13/2020
1321,23003,57,57,10,bxlolrbjieus,itc,1349.0,46.0,85.0,53.0,1,07/13/2020
1322,25326,5,5,11,bxlolrbjieus,itc,2171.0,20.0,80.0,12.0,1,07/13/2020
1323,25327,7,7,11,bxlolrbjieus,itc,1336.0,52.0,55.0,144.0,0,07/13/2020
1324,25328,9,9,11,bxlolrbjieus,itc,2914.0,20.0,60.0,8.0,1,07/13/2020
1325,25329,11,11,11,bxlolrbjieus,itc,1370.0,79.0,85.0,76.0,0,07/13/2020
1326,25330,13,13,11,bxlolrbjieus,itc,1364.0,25.0,55.0,75.0,1,07/13/2020
1327,25331,15,15,11,bxlolrbjieus,itc,1805.0,6.0,25.0,198.0,1,07/13/2020
1328,25332,17,17,11,bxlolrbjieus,itc,1392.0,25.0,30.0,80.0,0,07/13/2020
1329,25333,19,19,11,bxlolrbjieus,itc,2806.0,80.0,85.0,25.0,0,07/13/2020
1330,25334,21,21,11,bxlolrbjieus,itc,4670.0,10.0,35.0,10.0,1,07/13/2020
1331,25335,23,23,11,bxlolrbjieus,itc,1357.0,24.0,25.0,260.0,0,07/13/2020
1332,25336,25,25,11,bxlolrbjieus,itc,1500.0,43.0,75.0,124.0,1,07/13/2020
1333,25337,27,27,11,bxlolrbjieus,itc,1467.0,10.0,25.0,15.0,1,07/13/2020
1334,25338,29,29,11,bxlolrbjieus,itc,3235.0,72.0,75.0,104.0,0,07/13/2020
1335,25339,31,31,11,bxlolrbjieus,itc,3053.0,40.0,80.0,10.0,1,07/13/2020
1336,25340,33,33,11,bxlolrbjieus,itc,1751.0,50.0,55.0,100.0,0,07/13/2020
1337,25341,35,35,11,bxlolrbjieus,itc,1343.0,25.0,50.0,10.0,1,07/13/2020
1338,25342,37,37,11,bxlolrbjieus,itc,1625.0,32.0,75.0,84.0,1,07/13/2020
1339,25343,39,39,11,bxlolrbjieus,itc,2107.0,79.0,80.0,79.0,0,07/13/2020
1340,25344,41,41,11,bxlolrbjieus,itc,1939.0,54.0,85.0,14.0,1,07/13/2020
1341,25345,43,43,11,bxlolrbjieus,itc,6806.0,23.0,35.0,87.0,1,07/13/2020
1342,25346,45,45,11,bxlolrbjieus,itc,4132.0,5.0,30.0,122.0,1,07/13/2020
1343,25347,47,47,11,bxlolrbjieus,itc,2505.0,10.0,60.0,122.0,1,07/13/2020
1344,25348,49,49,11,bxlolrbjieus,itc,1259.0,49.0,50.0,127.0,0,07/13/2020
1345,25349,51,51,11,bxlolrbjieus,itc,1088.0,32.0,35.0,234.0,0,07/13/2020
1346,25350,53,53,11,bxlolrbjieus,itc,2393.0,40.0,50.0,100.0,0,07/13/2020
1347,25351,55,55,11,bxlolrbjieus,itc,5040.0,53.0,60.0,22.0,0,07/13/2020
1348,25352,57,57,11,bxlolrbjieus,itc,3382.0,27.0,30.0,111.0,0,07/13/2020
1349,27648,5,5,12,bxlolrbjieus,itc,1728.0,24.0,25.0,260.0,0,07/13/2020
1350,27649,7,7,12,bxlolrbjieus,itc,1381.0,20.0,60.0,8.0,1,07/13/2020
1351,27650,9,9,12,bxlolrbjieus,itc,1097.0,59.0,60.0,106.0,0,07/13/2020
1352,27651,11,11,12,bxlolrbjieus,itc,1450.0,30.0,75.0,15.0,1,07/13/2020
1353,27652,13,13,12,bxlolrbjieus,itc,1042.0,24.0,25.0,104.0,0,07/13/2020
1354,27653,15,15,12,bxlolrbjieus,itc,1063.0,20.0,85.0,13.0,1,07/13/2020
1355,27654,17,17,12,bxlolrbjieus,itc,1103.0,52.0,55.0,144.0,0,07/13/2020
1356,27655,19,19,12,bxlolrbjieus,itc,1203.0,31.0,35.0,129.0,0,07/13/2020
1357,27656,21,21,12,bxlolrbjieus,itc,1448.0,79.0,85.0,76.0,0,07/13/2020
1358,27657,23,23,12,bxlolrbjieus,itc,1419.0,25.0,55.0,75.0,1,07/13/2020
1359,27658,25,25,12,bxlolrbjieus,itc,1451.0,11.0,30.0,108.0,1,07/13/2020
1360,27659,27,27,12,bxlolrbjieus,itc,1252.0,5.0,25.0,16.0,1,07/13/2020
1361,27660,29,29,12,bxlolrbjieus,itc,1449.0,43.0,75.0,124.0,1,07/13/2020
1362,27661,31,31,12,bxlolrbjieus,itc,1246.0,46.0,85.0,53.0,1,07/13/2020
1363,27662,33,33,12,bxlolrbjieus,itc,1619.0,64.0,80.0,100.0,0,07/13/2020
1364,27663,35,35,12,bxlolrbjieus,itc,1359.0,34.0,80.0,33.0,1,07/13/2020
1365,27664,37,37,12,bxlolrbjieus,itc,1405.0,8.0,50.0,128.0,1,07/13/2020
1366,27665,39,39,12,bxlolrbjieus,itc,1614.0,25.0,50.0,10.0,1,07/13/2020
1367,27666,41,41,12,bxlolrbjieus,itc,1981.0,40.0,50.0,100.0,0,07/13/2020
1368,27667,43,43,12,bxlolrbjieus,itc,1583.0,53.0,60.0,22.0,0,07/13/2020
1369,27668,45,45,12,bxlolrbjieus,itc,1300.0,10.0,35.0,61.0,1,07/13/2020
1370,27669,47,47,12,bxlolrbjieus,itc,1051.0,79.0,80.0,79.0,0,07/13/2020
1371,27670,49,49,12,bxlolrbjieus,itc,1015.0,28.0,35.0,100.0,0,07/13/2020
1372,27671,51,51,12,bxlolrbjieus,itc,1757.0,13.0,30.0,218.0,0,07/13/2020
1373,27672,53,53,12,bxlolrbjieus,itc,1322.0,72.0,75.0,104.0,0,07/13/2020
1374,27673,55,55,12,bxlolrbjieus,itc,1445.0,15.0,30.0,10.0,1,07/13/2020
1375,27674,57,57,12,bxlolrbjieus,itc,1087.0,50.0,55.0,100.0,0,07/13/2020
1376,108,5,5,1,bybvhedyhsod,itc,3072.0,69.0,75.0,87.0,0,07/13/2020
1377,109,7,7,1,bybvhedyhsod,itc,2200.0,50.0,55.0,40.0,0,07/13/2020
1378,110,9,9,1,bybvhedyhsod,itc,1499.0,10.0,35.0,61.0,0,07/13/2020
1379,111,11,11,1,bybvhedyhsod,itc,1788.0,27.0,30.0,111.0,0,07/13/2020
1380,112,13,13,1,bybvhedyhsod,itc,2903.0,54.0,85.0,14.0,0,07/13/2020
1381,113,15,15,1,bybvhedyhsod,itc,1270.0,53.0,60.0,22.0,0,07/13/2020
1382,114,17,17,1,bybvhedyhsod,itc,1464.0,20.0,60.0,8.0,1,07/13/2020
1383,115,19,19,1,bybvhedyhsod,itc,2025.0,49.0,50.0,127.0,0,07/13/2020
1384,116,21,21,1,bybvhedyhsod,itc,1500.0,24.0,25.0,260.0,0,07/13/2020
1385,117,23,23,1,bybvhedyhsod,itc,1878.0,25.0,55.0,75.0,0,07/13/2020
1386,118,25,25,1,bybvhedyhsod,itc,2092.0,34.0,85.0,250.0,0,07/13/2020
1387,119,27,27,1,bybvhedyhsod,itc,1786.0,8.0,50.0,128.0,0,07/13/2020
1388,120,29,29,1,bybvhedyhsod,itc,2326.0,40.0,80.0,10.0,1,07/13/2020
1389,121,31,31,1,bybvhedyhsod,itc,1556.0,82.0,85.0,229.0,0,07/13/2020
1390,122,33,33,1,bybvhedyhsod,itc,2668.0,10.0,25.0,15.0,0,07/13/2020
1391,123,35,35,1,bybvhedyhsod,itc,1516.0,25.0,50.0,10.0,1,07/13/2020
1392,124,37,37,1,bybvhedyhsod,itc,2470.0,58.0,60.0,86.0,0,07/13/2020
1393,125,39,39,1,bybvhedyhsod,itc,1715.0,50.0,55.0,100.0,0,07/13/2020
1394,126,41,41,1,bybvhedyhsod,itc,1302.0,32.0,35.0,234.0,0,07/13/2020
1395,127,43,43,1,bybvhedyhsod,itc,1536.0,32.0,75.0,84.0,0,07/13/2020
1396,128,45,45,1,bybvhedyhsod,itc,1881.0,6.0,25.0,198.0,0,07/13/2020
1397,129,47,47,1,bybvhedyhsod,itc,3164.0,13.0,30.0,218.0,0,07/13/2020
1398,130,49,49,1,bybvhedyhsod,itc,1540.0,78.0,80.0,64.0,0,07/13/2020
1399,131,51,51,1,bybvhedyhsod,itc,1639.0,20.0,80.0,12.0,1,07/13/2020
1400,132,53,53,1,bybvhedyhsod,itc,1833.0,60.0,75.0,100.0,0,07/13/2020
1401,133,55,55,1,bybvhedyhsod,itc,2511.0,28.0,35.0,100.0,0,07/13/2020
1402,134,57,57,1,bybvhedyhsod,itc,1614.0,10.0,30.0,8.0,1,07/13/2020
1403,2970,5,5,2,bybvhedyhsod,itc,2720.0,79.0,80.0,79.0,0,07/13/2020
1404,2971,7,7,2,bybvhedyhsod,itc,1526.0,69.0,75.0,87.0,0,07/13/2020
1405,2972,9,9,2,bybvhedyhsod,itc,1440.0,20.0,85.0,13.0,1,07/13/2020
1406,2973,11,11,2,bybvhedyhsod,itc,1852.0,46.0,50.0,87.0,0,07/13/2020
1407,2974,13,13,2,bybvhedyhsod,itc,1528.0,10.0,35.0,10.0,1,07/13/2020
1408,2975,15,15,2,bybvhedyhsod,itc,4233.0,10.0,25.0,15.0,1,07/13/2020
1409,2976,17,17,2,bybvhedyhsod,itc,3021.0,50.0,80.0,100.0,0,07/13/2020
1410,2977,19,19,2,bybvhedyhsod,itc,1365.0,24.0,25.0,260.0,0,07/13/2020
1411,2978,21,21,2,bybvhedyhsod,itc,1801.0,11.0,30.0,108.0,0,07/13/2020
1412,2979,23,23,2,bybvhedyhsod,itc,1914.0,20.0,60.0,125.0,0,07/13/2020
1413,2980,25,25,2,bybvhedyhsod,itc,1570.0,27.0,30.0,111.0,0,07/13/2020
1414,2981,27,27,2,bybvhedyhsod,itc,1495.0,39.0,50.0,47.0,0,07/13/2020
1415,2982,29,29,2,bybvhedyhsod,itc,1542.0,25.0,30.0,80.0,0,07/13/2020
1416,2983,31,31,2,bybvhedyhsod,itc,2112.0,5.0,55.0,244.0,0,07/13/2020
1417,2984,33,33,2,bybvhedyhsod,itc,1406.0,4.0,25.0,128.0,0,07/13/2020
1418,2985,35,35,2,bybvhedyhsod,itc,1869.0,30.0,60.0,10.0,1,07/13/2020
1419,2986,37,37,2,bybvhedyhsod,itc,1503.0,54.0,85.0,14.0,1,07/13/2020
1420,2987,39,39,2,bybvhedyhsod,itc,1529.0,52.0,55.0,144.0,0,07/13/2020
1421,2988,41,41,2,bybvhedyhsod,itc,2371.0,80.0,85.0,25.0,0,07/13/2020
1422,2989,43,43,2,bybvhedyhsod,itc,1510.0,32.0,35.0,234.0,0,07/13/2020
1423,2990,45,45,2,bybvhedyhsod,itc,1365.0,10.0,50.0,16.0,1,07/13/2020
1424,2991,47,47,2,bybvhedyhsod,itc,1862.0,30.0,75.0,15.0,1,07/13/2020
1425,2992,49,49,2,bybvhedyhsod,itc,1268.0,23.0,35.0,87.0,0,07/13/2020
1426,2993,51,51,2,bybvhedyhsod,itc,1318.0,50.0,55.0,40.0,0,07/13/2020
