,Unnamed: 0,Unnamed: 0.1,Unnamed: 0.1.1,trial_index,weekId,subjectId,expId,rt,block,top_p,low_p,hi_narr,lo_narr,hi_wide,lo_wide,ticket1_EV,ticket2_EV,difference,choice,EV_chosen,correct,correct_choice,date
0,0,61,7,7,1,bkvnluqzwjwe,lt,4198,block_1,10,90,2.6,2.08,5,0.13,131.2,37.95,93.25,1,more,TRUE,ticket1,7/13/2020
1,1,62,9,9,1,bkvnluqzwjwe,lt,2736,block_1,20,80,2.2,1.76,4.23,0.11,159.6,80.7,78.9,1,more,TRUE,ticket1,7/13/2020
2,2,63,11,11,1,bkvnluqzwjwe,lt,3337,block_1,70,30,2.6,2.08,5,0.13,197.4,285.95,-88.55,1,less,FALSE,ticket2,7/13/2020
3,3,64,13,13,1,bkvnluqzwjwe,lt,2483,block_1,90,10,2.2,1.76,4.23,0.11,235.2,416.55,-181.35,1,less,FALSE,ticket2,7/13/2020
4,4,65,15,15,1,bkvnluqzwjwe,lt,2998,block_1,30,70,2,1.6,3.85,0.1,172,122.35,49.65,1,more,TRUE,ticket1,7/13/2020
5,5,66,17,17,1,bkvnluqzwjwe,lt,2631,block_1,60,40,1.4,1.12,2.69,0.07,193.2,246.6,-53.4,1,less,FALSE,ticket2,7/13/2020
6,6,67,19,19,1,bkvnluqzwjwe,lt,3318,block_1,50,50,2.2,1.76,4.23,0.11,198,217,-19,1,less,FALSE,ticket2,7/13/2020
7,7,68,21,21,1,bkvnluqzwjwe,lt,4300,block_1,80,20,2.8,2.24,5.38,0.14,182.4,294.3,-111.9,1,less,FALSE,ticket2,7/13/2020
8,8,69,23,23,1,bkvnluqzwjwe,lt,7123,block_1,100,0,2.2,1.76,4.23,0.11,170,327,-157,0,more,TRUE,ticket2,7/13/2020
9,9,70,26,26,1,bkvnluqzwjwe,lt,5549,block_2,100,0,55,44,105.75,2.75,170,327,-157,0,more,TRUE,ticket2,7/13/2020
10,10,71,28,28,1,bkvnluqzwjwe,lt,5800,block_2,30,70,65,52,125,3.25,172,122.35,49.65,1,more,TRUE,ticket1,7/13/2020
11,11,72,30,30,1,bkvnluqzwjwe,lt,2557,block_2,20,80,60,48,115.5,3,159.6,80.7,78.9,1,more,TRUE,ticket1,7/13/2020
12,12,73,32,32,1,bkvnluqzwjwe,lt,2309,block_2,80,20,60,48,115.5,3,182.4,294.3,-111.9,1,less,FALSE,ticket2,7/13/2020
13,13,74,34,34,1,bkvnluqzwjwe,lt,2308,block_2,40,60,75,60,144.25,3.75,176,159.8,16.2,1,more,TRUE,ticket1,7/13/2020
14,14,75,36,36,1,bkvnluqzwjwe,lt,1945,block_2,60,40,60,48,115.5,3,193.2,246.6,-53.4,1,less,FALSE,ticket2,7/13/2020
15,15,76,38,38,1,bkvnluqzwjwe,lt,4414,block_2,90,10,60,48,115.5,3,235.2,416.55,-181.35,1,less,FALSE,ticket2,7/13/2020
16,16,77,40,40,1,bkvnluqzwjwe,lt,2067,block_2,50,50,65,52,125,3.25,198,217,-19,1,less,FALSE,ticket2,7/13/2020
17,17,78,42,42,1,bkvnluqzwjwe,lt,1822,block_2,70,30,70,56,134.5,3.5,197.4,285.95,-88.55,1,less,FALSE,ticket2,7/13/2020
18,18,79,44,44,1,bkvnluqzwjwe,lt,2266,block_2,10,90,60,48,115.5,3,131.2,37.95,93.25,1,more,TRUE,ticket1,7/13/2020
19,19,80,47,47,1,bkvnluqzwjwe,lt,5023,block_3,20,80,190,152,365.5,9.5,159.6,80.7,78.9,1,more,TRUE,ticket1,7/13/2020
20,20,81,49,49,1,bkvnluqzwjwe,lt,6050,block_3,30,70,200,160,384.5,10,172,122.35,49.65,1,more,TRUE,ticket1,7/13/2020
21,21,82,51,51,1,bkvnluqzwjwe,lt,1826,block_3,60,40,210,168,404,10.5,193.2,246.6,-53.4,1,less,FALSE,ticket2,7/13/2020
22,22,83,53,53,1,bkvnluqzwjwe,lt,2162,block_3,80,20,190,152,365.5,9.5,182.4,294.3,-111.9,1,less,FALSE,ticket2,7/13/2020
23,23,84,55,55,1,bkvnluqzwjwe,lt,2659,block_3,10,90,160,128,307.5,8,131.2,37.95,93.25,1,more,TRUE,ticket1,7/13/2020
24,24,85,57,57,1,bkvnluqzwjwe,lt,2543,block_3,70,30,210,168,404,10.5,197.4,285.95,-88.55,1,less,FALSE,ticket2,7/13/2020
25,25,86,59,59,1,bkvnluqzwjwe,lt,4523,block_3,100,0,170,136,327,8.5,170,327,-157,0,more,TRUE,ticket2,7/13/2020
26,26,87,61,61,1,bkvnluqzwjwe,lt,2281,block_3,40,60,200,160,384.5,10,176,159.8,16.2,1,more,TRUE,ticket1,7/13/2020
27,27,88,63,63,1,bkvnluqzwjwe,lt,3449,block_3,90,10,240,192,461.5,12,235.2,416.55,-181.35,1,less,FALSE,ticket2,7/13/2020
28,28,89,65,65,1,bkvnluqzwjwe,lt,3727,block_3,50,50,220,176,423,11,198,217,-19,1,less,FALSE,ticket2,7/13/2020
29,29,3331,7,7,2,bkvnluqzwjwe,lt,2939,block_1,90,10,2,1.6,3.85,0.1,186.2,329.9,-143.7,1,less,FALSE,ticket2,7/13/2020
30,30,3332,9,9,2,bkvnluqzwjwe,lt,2978,block_1,80,20,2,1.6,3.85,0.1,211.2,340.6,-129.4,1,less,FALSE,ticket2,7/13/2020
31,31,3333,11,11,2,bkvnluqzwjwe,lt,4045,block_1,60,40,1.6,1.28,3.08,0.08,165.6,211.2,-45.6,1,less,FALSE,ticket2,7/13/2020
32,32,3334,13,13,2,bkvnluqzwjwe,lt,3718,block_1,20,80,1.8,1.44,3.46,0.09,151.2,76.4,74.8,1,more,TRUE,ticket1,7/13/2020
33,33,3335,15,15,2,bkvnluqzwjwe,lt,1832,block_1,100,0,2.8,2.24,5.38,0.14,220,423,-203,1,less,FALSE,ticket2,7/13/2020
34,34,3336,17,17,2,bkvnluqzwjwe,lt,3240,block_1,10,90,2.4,1.92,4.62,0.12,155.8,45.1,110.7,1,more,TRUE,ticket1,7/13/2020
35,35,3337,19,19,2,bkvnluqzwjwe,lt,5468,block_1,30,70,2.8,2.24,5.38,0.14,163.4,116.3,47.1,1,more,TRUE,ticket1,7/13/2020
36,36,3338,21,21,2,bkvnluqzwjwe,lt,2155,block_1,40,60,2.6,2.08,5,0.13,149.6,135.9,13.7,1,more,TRUE,ticket1,7/13/2020
37,37,3339,23,23,2,bkvnluqzwjwe,lt,3955,block_1,70,30,2.4,1.92,4.62,0.12,141,204.2,-63.2,1,less,FALSE,ticket2,7/13/2020
38,38,3340,26,26,2,bkvnluqzwjwe,lt,8635,block_2,50,50,70,56,134.5,3.5,189,207.25,-18.25,1,less,FALSE,ticket2,7/13/2020
39,39,3341,28,28,2,bkvnluqzwjwe,lt,9795,block_2,100,0,60,48,115.5,3,220,423,-203,0,more,TRUE,ticket2,7/13/2020
40,40,3342,30,30,2,bkvnluqzwjwe,lt,2823,block_2,60,40,55,44,105.75,2.75,165.6,211.2,-45.6,1,less,FALSE,ticket2,7/13/2020
41,41,3343,32,32,2,bkvnluqzwjwe,lt,2373,block_2,80,20,60,48,115.5,3,211.2,340.6,-129.4,1,less,FALSE,ticket2,7/13/2020
42,42,3344,34,34,2,bkvnluqzwjwe,lt,3442,block_2,90,10,75,60,144.25,3.75,186.2,329.9,-143.7,1,less,FALSE,ticket2,7/13/2020
43,43,3345,36,36,2,bkvnluqzwjwe,lt,2035,block_2,70,30,65,52,125,3.25,141,204.2,-63.2,1,less,FALSE,ticket2,7/13/2020
44,44,3346,38,38,2,bkvnluqzwjwe,lt,2467,block_2,40,60,65,52,125,3.25,149.6,135.9,13.7,1,more,TRUE,ticket1,7/13/2020
45,45,3347,40,40,2,bkvnluqzwjwe,lt,3429,block_2,10,90,60,48,115.5,3,155.8,45.1,110.7,1,more,TRUE,ticket1,7/13/2020
46,46,3348,42,42,2,bkvnluqzwjwe,lt,4325,block_2,20,80,65,52,125,3.25,151.2,76.4,74.8,1,more,TRUE,ticket1,7/13/2020
47,47,3349,44,44,2,bkvnluqzwjwe,lt,2108,block_2,30,70,75,60,144.25,3.75,163.4,116.3,47.1,1,more,TRUE,ticket1,7/13/2020
48,48,3350,47,47,2,bkvnluqzwjwe,lt,5538,block_3,90,10,190,152,365.5,9.5,186.2,329.9,-143.7,1,less,FALSE,ticket2,7/13/2020
49,49,3351,49,49,2,bkvnluqzwjwe,lt,2137,block_3,50,50,210,168,404,10.5,189,207.25,-18.25,1,less,FALSE,ticket2,7/13/2020
50,50,3353,53,53,2,bkvnluqzwjwe,lt,4356,block_3,80,20,220,176,423,11,211.2,340.6,-129.4,1,less,FALSE,ticket2,7/13/2020
51,51,3354,55,55,2,bkvnluqzwjwe,lt,9379,block_3,40,60,170,136,327,8.5,149.6,135.9,13.7,1,more,TRUE,ticket1,7/13/2020
52,52,3355,57,57,2,bkvnluqzwjwe,lt,2155,block_3,60,40,180,144,346,9,165.6,211.2,-45.6,1,less,FALSE,ticket2,7/13/2020
53,53,3356,59,59,2,bkvnluqzwjwe,lt,2691,block_3,30,70,190,152,365.5,9.5,163.4,116.3,47.1,1,more,TRUE,ticket1,7/13/2020
54,54,3357,61,61,2,bkvnluqzwjwe,lt,3596,block_3,20,80,180,144,346,9,151.2,76.4,74.8,1,more,TRUE,ticket1,7/13/2020
55,55,3358,63,63,2,bkvnluqzwjwe,lt,1711,block_3,70,30,150,120,288.5,7.5,141,204.2,-63.2,1,less,FALSE,ticket2,7/13/2020
56,56,3359,65,65,2,bkvnluqzwjwe,lt,3296,block_3,10,90,190,152,365.5,9.5,155.8,45.1,110.7,1,more,TRUE,ticket1,7/13/2020
57,57,6301,7,7,3,bkvnluqzwjwe,lt,2980,block_1,40,60,2.2,1.76,4.23,0.11,167.2,151.9,15.3,1,more,TRUE,ticket1,7/13/2020
58,58,6302,9,9,3,bkvnluqzwjwe,lt,2810,block_1,10,90,2,1.6,3.85,0.1,180.4,52.2,128.2,1,more,TRUE,ticket1,7/13/2020
59,59,6303,11,11,3,bkvnluqzwjwe,lt,5986,block_1,60,40,2,1.6,3.85,0.1,193.2,246.6,-53.4,1,less,FALSE,ticket2,7/13/2020
60,60,6304,13,13,3,bkvnluqzwjwe,lt,3019,block_1,50,50,2.4,1.92,4.62,0.12,153,167.75,-14.75,1,less,FALSE,ticket2,7/13/2020
61,61,6305,15,15,3,bkvnluqzwjwe,lt,2776,block_1,20,80,1.4,1.12,2.69,0.07,159.6,80.7,78.9,1,more,TRUE,ticket1,7/13/2020
62,62,6307,19,19,3,bkvnluqzwjwe,lt,6425,block_1,70,30,1.6,1.28,3.08,0.08,169.2,244.9,-75.7,1,less,FALSE,ticket2,7/13/2020
63,63,6308,21,21,3,bkvnluqzwjwe,lt,6528,block_1,30,70,2.6,2.08,5,0.13,180.6,128.55,52.05,1,more,TRUE,ticket1,7/13/2020
64,64,6309,23,23,3,bkvnluqzwjwe,lt,8455,block_1,90,10,2.6,2.08,5,0.13,176.4,312.3,-135.9,1,less,FALSE,ticket2,7/13/2020
65,65,6310,26,26,3,bkvnluqzwjwe,lt,7395,block_2,60,40,60,48,115.5,3,193.2,246.6,-53.4,1,less,FALSE,ticket2,7/13/2020
66,66,6311,28,28,3,bkvnluqzwjwe,lt,8881,block_2,30,70,60,48,115.5,3,180.6,128.55,52.05,1,more,TRUE,ticket1,7/13/2020
67,67,6312,30,30,3,bkvnluqzwjwe,lt,2748,block_2,10,90,70,56,134.5,3.5,180.4,52.2,128.2,1,more,TRUE,ticket1,7/13/2020
68,68,6313,32,32,3,bkvnluqzwjwe,lt,2824,block_2,40,60,70,56,134.5,3.5,167.2,151.9,15.3,1,more,TRUE,ticket1,7/13/2020
69,69,6314,34,34,3,bkvnluqzwjwe,lt,2616,block_2,50,50,55,44,105.75,2.75,153,167.75,-14.75,1,less,FALSE,ticket2,7/13/2020
70,70,6315,36,36,3,bkvnluqzwjwe,lt,2578,block_2,70,30,50,40,96.25,2.5,169.2,244.9,-75.7,1,less,FALSE,ticket2,7/13/2020
71,71,6316,38,38,3,bkvnluqzwjwe,lt,2292,block_2,90,10,65,52,125,3.25,176.4,312.3,-135.9,1,less,FALSE,ticket2,7/13/2020
72,72,6317,40,40,3,bkvnluqzwjwe,lt,4727,block_2,80,20,60,48,115.5,3,182.4,294.3,-111.9,1,less,FALSE,ticket2,7/13/2020
73,73,6318,42,42,3,bkvnluqzwjwe,lt,1565,block_2,20,80,80,64,153.75,4,159.6,80.7,78.9,1,more,TRUE,ticket1,7/13/2020
74,74,6320,47,47,3,bkvnluqzwjwe,lt,3577,block_3,70,30,180,144,346,9,169.2,244.9,-75.7,1,less,FALSE,ticket2,7/13/2020
75,75,6321,49,49,3,bkvnluqzwjwe,lt,6582,block_3,100,0,180,144,346,9,180,346,-166,0,more,TRUE,ticket2,7/13/2020
76,76,6322,51,51,3,bkvnluqzwjwe,lt,5502,block_3,30,70,210,168,404,10.5,180.6,128.55,52.05,1,more,TRUE,ticket1,7/13/2020
77,77,6323,53,53,3,bkvnluqzwjwe,lt,1577,block_3,50,50,170,136,327,8.5,153,167.75,-14.75,1,less,FALSE,ticket2,7/13/2020
78,78,6324,55,55,3,bkvnluqzwjwe,lt,1959,block_3,40,60,190,152,365.5,9.5,167.2,151.9,15.3,1,more,TRUE,ticket1,7/13/2020
79,79,6325,57,57,3,bkvnluqzwjwe,lt,2295,block_3,60,40,210,168,404,10.5,193.2,246.6,-53.4,1,less,FALSE,ticket2,7/13/2020
80,80,6326,59,59,3,bkvnluqzwjwe,lt,2500,block_3,80,20,190,152,365.5,9.5,182.4,294.3,-111.9,1,less,FALSE,ticket2,7/13/2020
81,81,6327,61,61,3,bkvnluqzwjwe,lt,1732,block_3,20,80,190,152,365.5,9.5,159.6,80.7,78.9,1,more,TRUE,ticket1,7/13/2020
82,82,6328,63,63,3,bkvnluqzwjwe,lt,2122,block_3,90,10,180,144,346,9,176.4,312.3,-135.9,1,less,FALSE,ticket2,7/13/2020
83,83,6329,65,65,3,bkvnluqzwjwe,lt,2842,block_3,10,90,220,176,423,11,180.4,52.2,128.2,1,more,TRUE,ticket1,7/13/2020
84,84,9331,7,7,4,bkvnluqzwjwe,lt,5650,block_1,10,90,3,2.4,5.77,0.15,147.6,42.7,104.9,1,more,TRUE,ticket1,7/13/2020
85,85,9332,9,9,4,bkvnluqzwjwe,lt,6297,block_1,20,80,2.2,1.76,4.23,0.11,142.8,72.2,70.6,1,more,TRUE,ticket1,7/13/2020
86,86,9334,13,13,4,bkvnluqzwjwe,lt,3524,block_1,70,30,2,1.6,3.85,0.1,225.6,326.65,-101.05,1,less,FALSE,ticket2,7/13/2020
87,87,9335,15,15,4,bkvnluqzwjwe,lt,2467,block_1,80,20,2.2,1.76,4.23,0.11,172.8,278.6,-105.8,1,less,FALSE,ticket2,7/13/2020
88,88,9336,17,17,4,bkvnluqzwjwe,lt,3631,block_1,40,60,1.4,1.12,2.69,0.07,149.6,135.9,13.7,1,more,TRUE,ticket1,7/13/2020
89,89,9337,19,19,4,bkvnluqzwjwe,lt,3591,block_1,30,70,2,1.6,3.85,0.1,163.4,116.3,47.1,1,more,TRUE,ticket1,7/13/2020
90,90,9338,21,21,4,bkvnluqzwjwe,lt,6661,block_1,90,10,2,1.6,3.85,0.1,225.4,399.4,-174,1,less,FALSE,ticket2,7/13/2020
91,91,9339,23,23,4,bkvnluqzwjwe,lt,5903,block_1,60,40,1.8,1.44,3.46,0.09,184,234.7,-50.7,1,less,FALSE,ticket2,7/13/2020
92,92,9340,26,26,4,bkvnluqzwjwe,lt,5617,block_2,20,80,50,40,96.25,2.5,142.8,72.2,70.6,1,more,TRUE,ticket1,7/13/2020
93,93,9341,28,28,4,bkvnluqzwjwe,lt,2080,block_2,70,30,70,56,134.5,3.5,225.6,326.65,-101.05,1,less,FALSE,ticket2,7/13/2020
94,94,9342,30,30,4,bkvnluqzwjwe,lt,3024,block_2,30,70,45,36,86.5,2.25,163.4,116.3,47.1,1,more,TRUE,ticket1,7/13/2020
95,95,9343,32,32,4,bkvnluqzwjwe,lt,3105,block_2,80,20,75,60,144.25,3.75,172.8,278.6,-105.8,1,less,FALSE,ticket2,7/13/2020
96,96,9344,34,34,4,bkvnluqzwjwe,lt,3999,block_2,90,10,70,56,134.5,3.5,225.4,399.4,-174,1,less,FALSE,ticket2,7/13/2020
97,97,9345,36,36,4,bkvnluqzwjwe,lt,2079,block_2,60,40,60,48,115.5,3,184,234.7,-50.7,1,less,FALSE,ticket2,7/13/2020
98,98,9346,38,38,4,bkvnluqzwjwe,lt,2427,block_2,10,90,55,44,105.75,2.75,147.6,42.7,104.9,1,more,TRUE,ticket1,7/13/2020
99,99,9347,40,40,4,bkvnluqzwjwe,lt,3382,block_2,40,60,55,44,105.75,2.75,149.6,135.9,13.7,1,more,TRUE,ticket1,7/13/2020
100,100,9348,42,42,4,bkvnluqzwjwe,lt,2889,block_2,50,50,45,36,86.5,2.25,180,197.25,-17.25,1,less,FALSE,ticket2,7/13/2020
101,101,9350,47,47,4,bkvnluqzwjwe,lt,3876,block_3,40,60,170,136,327,8.5,149.6,135.9,13.7,1,more,TRUE,ticket1,7/13/2020
102,102,9351,49,49,4,bkvnluqzwjwe,lt,3218,block_3,70,30,240,192,461.5,12,225.6,326.65,-101.05,1,less,FALSE,ticket2,7/13/2020
103,103,9352,51,51,4,bkvnluqzwjwe,lt,2449,block_3,30,70,190,152,365.5,9.5,163.4,116.3,47.1,1,more,TRUE,ticket1,7/13/2020
104,104,9353,53,53,4,bkvnluqzwjwe,lt,3100,block_3,10,90,180,144,346,9,147.6,42.7,104.9,1,more,TRUE,ticket1,7/13/2020
105,105,9354,55,55,4,bkvnluqzwjwe,lt,1588,block_3,60,40,200,160,384.5,10,184,234.7,-50.7,1,less,FALSE,ticket2,7/13/2020
106,106,9356,59,59,4,bkvnluqzwjwe,lt,2620,block_3,80,20,180,144,346,9,172.8,278.6,-105.8,1,less,FALSE,ticket2,7/13/2020
107,107,9357,61,61,4,bkvnluqzwjwe,lt,3540,block_3,50,50,200,160,384.5,10,180,197.25,-17.25,1,less,FALSE,ticket2,7/13/2020
108,108,9358,63,63,4,bkvnluqzwjwe,lt,2912,block_3,20,80,170,136,327,8.5,142.8,72.2,70.6,1,more,TRUE,ticket1,7/13/2020
109,109,9359,65,65,4,bkvnluqzwjwe,lt,3312,block_3,90,10,230,184,442.5,11.5,225.4,399.4,-174,1,less,FALSE,ticket2,7/13/2020
110,110,12241,7,7,5,bkvnluqzwjwe,lt,7887,block_1,10,90,2.4,1.92,4.62,0.12,188.6,54.6,134,1,more,TRUE,ticket1,7/13/2020
111,111,12242,9,9,5,bkvnluqzwjwe,lt,3446,block_1,40,60,2.4,1.92,4.62,0.12,193.6,175.8,17.8,1,more,TRUE,ticket1,7/13/2020
112,112,12243,11,11,5,bkvnluqzwjwe,lt,2880,block_1,30,70,2.2,1.76,4.23,0.11,197.8,140.8,57,1,more,TRUE,ticket1,7/13/2020
113,113,12244,13,13,5,bkvnluqzwjwe,lt,4016,block_1,60,40,1.2,0.96,2.31,0.06,156.4,199.6,-43.2,1,less,FALSE,ticket2,7/13/2020
114,114,12246,17,17,5,bkvnluqzwjwe,lt,2629,block_1,90,10,2.8,2.24,5.38,0.14,176.4,312.3,-135.9,1,less,FALSE,ticket2,7/13/2020
115,115,12247,19,19,5,bkvnluqzwjwe,lt,2239,block_1,70,30,2.2,1.76,4.23,0.11,188,272.15,-84.15,1,less,FALSE,ticket2,7/13/2020
116,116,12248,21,21,5,bkvnluqzwjwe,lt,6896,block_1,80,20,1.4,1.12,2.69,0.07,211.2,340.6,-129.4,1,less,FALSE,ticket2,7/13/2020
117,117,12249,23,23,5,bkvnluqzwjwe,lt,2872,block_1,20,80,2.4,1.92,4.62,0.12,126,63.7,62.3,1,more,TRUE,ticket1,7/13/2020
118,118,12251,28,28,5,bkvnluqzwjwe,lt,3263,block_2,60,40,65,52,125,3.25,156.4,199.6,-43.2,1,less,FALSE,ticket2,7/13/2020
119,119,12252,30,30,5,bkvnluqzwjwe,lt,2356,block_2,10,90,65,52,125,3.25,188.6,54.6,134,1,more,TRUE,ticket1,7/13/2020
120,120,12253,32,32,5,bkvnluqzwjwe,lt,3229,block_2,40,60,60,48,115.5,3,193.6,175.8,17.8,1,more,TRUE,ticket1,7/13/2020
121,121,12254,34,34,5,bkvnluqzwjwe,lt,3075,block_2,20,80,65,52,125,3.25,126,63.7,62.3,1,more,TRUE,ticket1,7/13/2020
122,122,12255,36,36,5,bkvnluqzwjwe,lt,2908,block_2,50,50,50,40,96.25,2.5,189,207.25,-18.25,1,less,FALSE,ticket2,7/13/2020
123,123,12256,38,38,5,bkvnluqzwjwe,lt,3116,block_2,90,10,65,52,125,3.25,176.4,312.3,-135.9,1,less,FALSE,ticket2,7/13/2020
124,124,12257,40,40,5,bkvnluqzwjwe,lt,3032,block_2,70,30,60,48,115.5,3,188,272.15,-84.15,1,less,FALSE,ticket2,7/13/2020
125,125,12258,42,42,5,bkvnluqzwjwe,lt,2990,block_2,30,70,70,56,134.5,3.5,197.8,140.8,57,1,more,TRUE,ticket1,7/13/2020
126,126,12259,44,44,5,bkvnluqzwjwe,lt,2791,block_2,80,20,55,44,105.75,2.75,211.2,340.6,-129.4,1,less,FALSE,ticket2,7/13/2020
127,127,12260,47,47,5,bkvnluqzwjwe,lt,9554,block_3,100,0,190,152,365.5,9.5,190,365.5,-175.5,0,more,TRUE,ticket2,7/13/2020
128,128,12261,49,49,5,bkvnluqzwjwe,lt,2323,block_3,80,20,220,176,423,11,211.2,340.6,-129.4,1,less,FALSE,ticket2,7/13/2020
129,129,12262,51,51,5,bkvnluqzwjwe,lt,2091,block_3,60,40,170,136,327,8.5,156.4,199.6,-43.2,1,less,FALSE,ticket2,7/13/2020
130,130,12263,53,53,5,bkvnluqzwjwe,lt,5109,block_3,90,10,180,144,346,9,176.4,312.3,-135.9,1,less,FALSE,ticket2,7/13/2020
131,131,12264,55,55,5,bkvnluqzwjwe,lt,5885,block_3,20,80,150,120,288.5,7.5,126,63.7,62.3,1,more,TRUE,ticket1,7/13/2020
132,132,12265,57,57,5,bkvnluqzwjwe,lt,2020,block_3,50,50,210,168,404,10.5,189,207.25,-18.25,1,less,FALSE,ticket2,7/13/2020
133,133,12266,59,59,5,bkvnluqzwjwe,lt,4507,block_3,30,70,230,184,442.5,11.5,197.8,140.8,57,1,more,TRUE,ticket1,7/13/2020
134,134,12267,61,61,5,bkvnluqzwjwe,lt,3233,block_3,40,60,220,176,423,11,193.6,175.8,17.8,1,more,TRUE,ticket1,7/13/2020
135,135,12268,63,63,5,bkvnluqzwjwe,lt,3274,block_3,10,90,230,184,442.5,11.5,188.6,54.6,134,1,more,TRUE,ticket1,7/13/2020
136,136,12269,65,65,5,bkvnluqzwjwe,lt,2098,block_3,70,30,200,160,384.5,10,188,272.15,-84.15,1,less,FALSE,ticket2,7/13/2020
137,137,14971,7,7,6,bkvnluqzwjwe,lt,7022,block_1,60,40,2,1.6,3.85,0.1,184,234.7,-50.7,1,less,FALSE,ticket2,7/13/2020
138,138,14972,9,9,6,bkvnluqzwjwe,lt,2993,block_1,90,10,2.4,1.92,4.62,0.12,215.6,381.8,-166.2,1,less,FALSE,ticket2,7/13/2020
139,139,14973,11,11,6,bkvnluqzwjwe,lt,7283,block_1,50,50,2.8,2.24,5.38,0.14,198,217,-19,1,less,FALSE,ticket2,7/13/2020
140,140,14974,13,13,6,bkvnluqzwjwe,lt,6582,block_1,80,20,2.2,1.76,4.23,0.11,172.8,278.6,-105.8,1,less,FALSE,ticket2,7/13/2020
141,141,14975,15,15,6,bkvnluqzwjwe,lt,2243,block_1,20,80,2,1.6,3.85,0.1,159.6,80.7,78.9,1,more,TRUE,ticket1,7/13/2020
142,142,14976,17,17,6,bkvnluqzwjwe,lt,3453,block_1,40,60,2.2,1.76,4.23,0.11,132,119.9,12.1,1,more,TRUE,ticket1,7/13/2020
143,143,14977,19,19,6,bkvnluqzwjwe,lt,5170,block_1,100,0,1,0.8,1.92,0.05,200,384.5,-184.5,0,more,TRUE,ticket2,7/13/2020
144,144,14978,21,21,6,bkvnluqzwjwe,lt,2637,block_1,70,30,1.8,1.44,3.46,0.09,197.4,285.95,-88.55,1,less,FALSE,ticket2,7/13/2020
145,145,14979,23,23,6,bkvnluqzwjwe,lt,2825,block_1,10,90,2,1.6,3.85,0.1,164,47.45,116.55,1,more,TRUE,ticket1,7/13/2020
146,146,14980,26,26,6,bkvnluqzwjwe,lt,3487,block_2,20,80,65,52,125,3.25,159.6,80.7,78.9,1,more,TRUE,ticket1,7/13/2020
147,147,14981,28,28,6,bkvnluqzwjwe,lt,3893,block_2,50,50,40,32,77,2,198,217,-19,1,less,FALSE,ticket2,7/13/2020
148,148,14982,30,30,6,bkvnluqzwjwe,lt,4480,block_2,70,30,75,60,144.25,3.75,197.4,285.95,-88.55,1,less,FALSE,ticket2,7/13/2020
149,149,14983,32,32,6,bkvnluqzwjwe,lt,2167,block_2,80,20,50,40,96.25,2.5,172.8,278.6,-105.8,1,less,FALSE,ticket2,7/13/2020
150,150,14984,34,34,6,bkvnluqzwjwe,lt,2629,block_2,60,40,65,52,125,3.25,184,234.7,-50.7,1,less,FALSE,ticket2,7/13/2020
151,151,14985,36,36,6,bkvnluqzwjwe,lt,5834,block_2,100,0,55,44,105.75,2.75,200,384.5,-184.5,0,more,TRUE,ticket2,7/13/2020
152,152,14986,38,38,6,bkvnluqzwjwe,lt,3188,block_2,30,70,60,48,115.5,3,163.4,116.3,47.1,1,more,TRUE,ticket1,7/13/2020
153,153,14987,40,40,6,bkvnluqzwjwe,lt,2350,block_2,10,90,60,48,115.5,3,164,47.45,116.55,1,more,TRUE,ticket1,7/13/2020
154,154,14988,42,42,6,bkvnluqzwjwe,lt,4005,block_2,40,60,75,60,144.25,3.75,132,119.9,12.1,1,more,TRUE,ticket1,7/13/2020
155,155,14989,44,44,6,bkvnluqzwjwe,lt,4648,block_2,90,10,60,48,115.5,3,215.6,381.8,-166.2,1,less,FALSE,ticket2,7/13/2020
156,156,14990,47,47,6,bkvnluqzwjwe,lt,2567,block_3,20,80,190,152,365.5,9.5,159.6,80.7,78.9,1,more,TRUE,ticket1,7/13/2020
157,157,14991,49,49,6,bkvnluqzwjwe,lt,2697,block_3,50,50,220,176,423,11,198,217,-19,1,less,FALSE,ticket2,7/13/2020
158,158,14992,51,51,6,bkvnluqzwjwe,lt,2377,block_3,60,40,200,160,384.5,10,184,234.7,-50.7,1,less,FALSE,ticket2,7/13/2020
159,159,14993,53,53,6,bkvnluqzwjwe,lt,5164,block_3,30,70,190,152,365.5,9.5,163.4,116.3,47.1,1,more,TRUE,ticket1,7/13/2020
160,160,14994,55,55,6,bkvnluqzwjwe,lt,4392,block_3,40,60,150,120,288.5,7.5,132,119.9,12.1,1,more,TRUE,ticket1,7/13/2020
161,161,14995,57,57,6,bkvnluqzwjwe,lt,1843,block_3,70,30,210,168,404,10.5,197.4,285.95,-88.55,1,less,FALSE,ticket2,7/13/2020
162,162,14997,61,61,6,bkvnluqzwjwe,lt,2387,block_3,90,10,220,176,423,11,215.6,381.8,-166.2,1,less,FALSE,ticket2,7/13/2020
163,163,14998,63,63,6,bkvnluqzwjwe,lt,1699,block_3,80,20,180,144,346,9,172.8,278.6,-105.8,1,less,FALSE,ticket2,7/13/2020
164,164,14999,65,65,6,bkvnluqzwjwe,lt,2723,block_3,10,90,200,160,384.5,10,164,47.45,116.55,1,more,TRUE,ticket1,7/13/2020
165,165,17701,7,7,7,bkvnluqzwjwe,lt,3593,block_1,30,70,2.6,2.08,5,0.13,2.236,1.591,0.645,1,more,TRUE,ticket1,7/13/2020
166,166,17702,9,9,7,bkvnluqzwjwe,lt,2643,block_1,50,50,1.4,1.12,2.69,0.07,1.26,1.38,-0.12,1,less,FALSE,ticket2,7/13/2020
167,167,17703,11,11,7,bkvnluqzwjwe,lt,3203,block_1,20,80,2.6,2.08,5,0.13,2.184,1.104,1.08,1,more,TRUE,ticket1,7/13/2020
168,168,17704,13,13,7,bkvnluqzwjwe,lt,2806,block_1,60,40,2.4,1.92,4.62,0.12,2.208,2.82,-0.612,1,less,FALSE,ticket2,7/13/2020
169,169,17705,15,15,7,bkvnluqzwjwe,lt,3848,block_1,70,30,1.4,1.12,2.69,0.07,1.316,1.904,-0.588,1,less,FALSE,ticket2,7/13/2020
170,170,17706,17,17,7,bkvnluqzwjwe,lt,4913,block_1,40,60,2.6,2.08,5,0.13,2.288,2.078,0.21,1,more,TRUE,ticket1,7/13/2020
171,171,17707,19,19,7,bkvnluqzwjwe,lt,5180,block_1,90,10,2.4,1.92,4.62,0.12,2.352,4.17,-1.818,1,less,FALSE,ticket2,7/13/2020
172,172,17708,21,21,7,bkvnluqzwjwe,lt,7401,block_1,100,0,3,2.4,5.77,0.15,3,5.77,-2.77,0,more,TRUE,ticket2,7/13/2020
173,173,17709,23,23,7,bkvnluqzwjwe,lt,1777,block_1,10,90,2.6,2.08,5,0.13,2.132,0.617,1.515,1,more,TRUE,ticket1,7/13/2020
174,174,17710,26,26,7,bkvnluqzwjwe,lt,3090,block_2,60,40,55,44,105.75,2.75,50.6,64.55,-13.95,1,less,FALSE,ticket2,7/13/2020
175,175,17711,28,28,7,bkvnluqzwjwe,lt,6056,block_2,100,0,65,52,125,3.25,65,125,-60,0,more,TRUE,ticket2,7/13/2020
176,176,17712,30,30,7,bkvnluqzwjwe,lt,2782,block_2,70,30,70,56,134.5,3.5,65.8,95.2,-29.4,1,less,FALSE,ticket2,7/13/2020
177,177,17713,32,32,7,bkvnluqzwjwe,lt,1644,block_2,50,50,55,44,105.75,2.75,49.5,54.25,-4.75,1,less,FALSE,ticket2,7/13/2020
178,178,17714,34,34,7,bkvnluqzwjwe,lt,2970,block_2,10,90,65,52,125,3.25,53.3,15.425,37.875,1,more,TRUE,ticket1,7/13/2020
179,179,17715,36,36,7,bkvnluqzwjwe,lt,2858,block_2,90,10,50,40,96.25,2.5,49,86.875,-37.875,1,less,FALSE,ticket2,7/13/2020
180,180,17716,38,38,7,bkvnluqzwjwe,lt,2314,block_2,20,80,50,40,96.25,2.5,42,21.25,20.75,1,more,TRUE,ticket1,7/13/2020
181,181,17717,40,40,7,bkvnluqzwjwe,lt,2368,block_2,40,60,65,52,125,3.25,57.2,51.95,5.25,1,more,TRUE,ticket1,7/13/2020
182,182,17718,42,42,7,bkvnluqzwjwe,lt,2878,block_2,80,20,70,56,134.5,3.5,67.2,108.3,-41.1,1,less,FALSE,ticket2,7/13/2020
183,183,17719,44,44,7,bkvnluqzwjwe,lt,2281,block_2,30,70,70,56,134.5,3.5,60.2,42.8,17.4,1,more,TRUE,ticket1,7/13/2020
184,184,17720,47,47,7,bkvnluqzwjwe,lt,3205,block_3,60,40,180,144,346,9,165.6,211.2,-45.6,1,less,FALSE,ticket2,7/13/2020
185,185,17721,49,49,7,bkvnluqzwjwe,lt,1779,block_3,80,20,170,136,327,8.5,163.2,263.3,-100.1,1,less,FALSE,ticket2,7/13/2020
186,186,17722,51,51,7,bkvnluqzwjwe,lt,2245,block_3,50,50,190,152,365.5,9.5,171,187.5,-16.5,1,less,FALSE,ticket2,7/13/2020
187,187,17723,53,53,7,bkvnluqzwjwe,lt,2385,block_3,30,70,200,160,384.5,10,172,122.35,49.65,1,more,TRUE,ticket1,7/13/2020
188,188,17724,55,55,7,bkvnluqzwjwe,lt,1610,block_3,20,80,220,176,423,11,184.8,93.4,91.4,1,more,TRUE,ticket1,7/13/2020
189,189,17725,57,57,7,bkvnluqzwjwe,lt,7781,block_3,70,30,200,160,384.5,10,188,272.15,-84.15,1,less,FALSE,ticket2,7/13/2020
190,190,17726,59,59,7,bkvnluqzwjwe,lt,2097,block_3,10,90,190,152,365.5,9.5,155.8,45.1,110.7,1,more,TRUE,ticket1,7/13/2020
191,191,17727,61,61,7,bkvnluqzwjwe,lt,1896,block_3,40,60,200,160,384.5,10,176,159.8,16.2,1,more,TRUE,ticket1,7/13/2020
192,192,17728,63,63,7,bkvnluqzwjwe,lt,8465,block_3,100,0,180,144,346,9,180,346,-166,0,more,TRUE,ticket2,7/13/2020
193,193,17729,65,65,7,bkvnluqzwjwe,lt,4144,block_3,90,10,210,168,404,10.5,205.8,364.65,-158.85,1,less,FALSE,ticket2,7/13/2020
194,194,20370,5,5,8,bkvnluqzwjwe,lt,9843,block_1,100,0,2.2,1.76,4.23,0.11,2.2,4.23,-2.03,0,more,TRUE,ticket2,7/13/2020
195,195,20371,7,7,8,bkvnluqzwjwe,lt,8877,block_1,80,20,2,1.6,3.85,0.1,1.92,3.1,-1.18,1,less,FALSE,ticket2,7/13/2020
196,196,20372,9,9,8,bkvnluqzwjwe,lt,2707,block_1,30,70,1.6,1.28,3.08,0.08,1.376,0.98,0.396,1,more,TRUE,ticket1,7/13/2020
197,197,20373,11,11,8,bkvnluqzwjwe,lt,3413,block_1,10,90,1.8,1.44,3.46,0.09,1.476,0.427,1.049,1,more,TRUE,ticket1,7/13/2020
198,198,20374,13,13,8,bkvnluqzwjwe,lt,4078,block_1,60,40,1.8,1.44,3.46,0.09,1.656,2.112,-0.456,1,less,FALSE,ticket2,7/13/2020
199,199,20375,15,15,8,bkvnluqzwjwe,lt,4606,block_1,20,80,2.4,1.92,4.62,0.12,2.016,1.02,0.996,1,more,TRUE,ticket1,7/13/2020
200,200,20376,17,17,8,bkvnluqzwjwe,lt,5246,block_1,40,60,2.6,2.08,5,0.13,2.288,2.078,0.21,1,more,TRUE,ticket1,7/13/2020
201,201,20377,19,19,8,bkvnluqzwjwe,lt,2778,block_1,90,10,2,1.6,3.85,0.1,1.96,3.475,-1.515,1,less,FALSE,ticket2,7/13/2020
202,202,20378,21,21,8,bkvnluqzwjwe,lt,1791,block_1,50,50,2.2,1.76,4.23,0.11,1.98,2.17,-0.19,1,less,FALSE,ticket2,7/13/2020
203,203,20379,23,23,8,bkvnluqzwjwe,lt,2119,block_1,70,30,2,1.6,3.85,0.1,1.88,2.725,-0.845,1,less,FALSE,ticket2,7/13/2020
204,204,20380,26,26,8,bkvnluqzwjwe,lt,4760,block_2,90,10,65,52,125,3.25,63.7,112.825,-49.125,1,less,FALSE,ticket2,7/13/2020
205,205,20381,28,28,8,bkvnluqzwjwe,lt,2771,block_2,80,20,60,48,115.5,3,57.6,93,-35.4,1,less,FALSE,ticket2,7/13/2020
206,206,20382,30,30,8,bkvnluqzwjwe,lt,1592,block_2,10,90,60,48,115.5,3,49.2,14.25,34.95,1,more,TRUE,ticket1,7/13/2020
207,207,20383,32,32,8,bkvnluqzwjwe,lt,2594,block_2,50,50,60,48,115.5,3,54,59.25,-5.25,1,less,FALSE,ticket2,7/13/2020
208,208,20384,34,34,8,bkvnluqzwjwe,lt,1504,block_2,20,80,50,40,96.25,2.5,42,21.25,20.75,1,more,TRUE,ticket1,7/13/2020
209,209,20385,36,36,8,bkvnluqzwjwe,lt,2554,block_2,60,40,60,48,115.5,3,55.2,70.5,-15.3,1,less,FALSE,ticket2,7/13/2020
210,210,20386,38,38,8,bkvnluqzwjwe,lt,2029,block_2,40,60,70,56,134.5,3.5,61.6,55.9,5.7,1,more,TRUE,ticket1,7/13/2020
211,211,20387,40,40,8,bkvnluqzwjwe,lt,6751,block_2,30,70,60,48,115.5,3,51.6,36.75,14.85,1,more,TRUE,ticket1,7/13/2020
212,212,20388,42,42,8,bkvnluqzwjwe,lt,9038,block_2,100,0,65,52,125,3.25,65,125,-60,0,more,TRUE,ticket2,7/13/2020
213,213,20389,44,44,8,bkvnluqzwjwe,lt,1712,block_2,70,30,55,44,105.75,2.75,51.7,74.85,-23.15,1,less,FALSE,ticket2,7/13/2020
214,214,20390,47,47,8,bkvnluqzwjwe,lt,2612,block_3,80,20,200,160,384.5,10,192,309.6,-117.6,1,less,FALSE,ticket2,7/13/2020
215,215,20391,49,49,8,bkvnluqzwjwe,lt,1973,block_3,60,40,180,144,346,9,165.6,211.2,-45.6,1,less,FALSE,ticket2,7/13/2020
216,216,20392,51,51,8,bkvnluqzwjwe,lt,1680,block_3,40,60,230,184,442.5,11.5,202.4,183.9,18.5,1,more,TRUE,ticket1,7/13/2020
217,217,20393,53,53,8,bkvnluqzwjwe,lt,7779,block_3,100,0,180,144,346,9,180,346,-166,0,more,TRUE,ticket2,7/13/2020
218,218,20394,55,55,8,bkvnluqzwjwe,lt,3813,block_3,10,90,190,152,365.5,9.5,155.8,45.1,110.7,1,more,TRUE,ticket1,7/13/2020
219,219,20395,57,57,8,bkvnluqzwjwe,lt,2732,block_3,90,10,230,184,442.5,11.5,225.4,399.4,-174,1,less,FALSE,ticket2,7/13/2020
220,220,20396,59,59,8,bkvnluqzwjwe,lt,2315,block_3,70,30,220,176,423,11,206.8,299.4,-92.6,1,less,FALSE,ticket2,7/13/2020
221,221,20397,61,61,8,bkvnluqzwjwe,lt,2193,block_3,50,50,180,144,346,9,162,177.5,-15.5,1,less,FALSE,ticket2,7/13/2020
222,222,20398,63,63,8,bkvnluqzwjwe,lt,3101,block_3,30,70,200,160,384.5,10,172,122.35,49.65,1,more,TRUE,ticket1,7/13/2020
223,223,20399,65,65,8,bkvnluqzwjwe,lt,2171,block_3,20,80,180,144,346,9,151.2,76.4,74.8,1,more,TRUE,ticket1,7/13/2020
224,224,23101,7,7,9,bkvnluqzwjwe,lt,4386,block_1,30,70,2,1.6,3.85,0.1,1.72,1.225,0.495,1,more,TRUE,ticket1,7/13/2020
225,225,23102,9,9,9,bkvnluqzwjwe,lt,1671,block_1,20,80,1.4,1.12,2.69,0.07,1.176,0.594,0.582,1,more,TRUE,ticket1,7/13/2020
226,226,23103,11,11,9,bkvnluqzwjwe,lt,3190,block_1,10,90,3,2.4,5.77,0.15,2.46,0.712,1.748,1,more,TRUE,ticket1,7/13/2020
227,227,23104,13,13,9,bkvnluqzwjwe,lt,2871,block_1,80,20,2.6,2.08,5,0.13,2.496,4.026,-1.53,1,less,FALSE,ticket2,7/13/2020
228,228,23105,15,15,9,bkvnluqzwjwe,lt,2668,block_1,90,10,2.2,1.76,4.23,0.11,2.156,3.818,-1.662,1,less,FALSE,ticket2,7/13/2020
229,229,23106,17,17,9,bkvnluqzwjwe,lt,2655,block_1,50,50,2.2,1.76,4.23,0.11,1.98,2.17,-0.19,1,less,FALSE,ticket2,7/13/2020
230,230,23107,19,19,9,bkvnluqzwjwe,lt,1965,block_1,70,30,2,1.6,3.85,0.1,1.88,2.725,-0.845,1,less,FALSE,ticket2,7/13/2020
231,231,23108,21,21,9,bkvnluqzwjwe,lt,2247,block_1,40,60,2,1.6,3.85,0.1,1.76,1.6,0.16,1,more,TRUE,ticket1,7/13/2020
232,232,23109,23,23,9,bkvnluqzwjwe,lt,5957,block_1,100,0,1.8,1.44,3.46,0.09,1.8,3.46,-1.66,0,more,TRUE,ticket2,7/13/2020
233,233,23110,26,26,9,bkvnluqzwjwe,lt,6167,block_2,70,30,60,48,115.5,3,56.4,81.75,-25.35,1,less,FALSE,ticket2,7/13/2020
234,234,23111,28,28,9,bkvnluqzwjwe,lt,2218,block_2,30,70,70,56,134.5,3.5,60.2,42.8,17.4,1,more,TRUE,ticket1,7/13/2020
235,235,23112,30,30,9,bkvnluqzwjwe,lt,2303,block_2,20,80,60,48,115.5,3,50.4,25.5,24.9,1,more,TRUE,ticket1,7/13/2020
236,236,23113,32,32,9,bkvnluqzwjwe,lt,2100,block_2,80,20,60,48,115.5,3,57.6,93,-35.4,1,less,FALSE,ticket2,7/13/2020
237,237,23114,34,34,9,bkvnluqzwjwe,lt,3292,block_2,90,10,60,48,115.5,3,58.8,104.25,-45.45,1,less,FALSE,ticket2,7/13/2020
238,238,23115,36,36,9,bkvnluqzwjwe,lt,2531,block_2,40,60,60,48,115.5,3,52.8,48,4.8,1,more,TRUE,ticket1,7/13/2020
239,239,23116,38,38,9,bkvnluqzwjwe,lt,6556,block_2,10,90,60,48,115.5,3,49.2,14.25,34.95,1,more,TRUE,ticket1,7/13/2020
240,240,23118,42,42,9,bkvnluqzwjwe,lt,1911,block_2,50,50,60,48,115.5,3,54,59.25,-5.25,1,less,FALSE,ticket2,7/13/2020
241,241,23119,44,44,9,bkvnluqzwjwe,lt,1759,block_2,60,40,50,40,96.25,2.5,46,58.75,-12.75,1,less,FALSE,ticket2,7/13/2020
242,242,23120,47,47,9,bkvnluqzwjwe,lt,2011,block_3,70,30,160,128,307.5,8,150.4,217.65,-67.25,1,less,FALSE,ticket2,7/13/2020
243,243,23121,49,49,9,bkvnluqzwjwe,lt,9720,block_3,90,10,170,136,327,8.5,166.6,295.15,-128.55,1,less,FALSE,ticket2,7/13/2020
244,244,23122,51,51,9,bkvnluqzwjwe,lt,2664,block_3,10,90,210,168,404,10.5,172.2,49.85,122.35,1,more,TRUE,ticket1,7/13/2020
245,245,23123,53,53,9,bkvnluqzwjwe,lt,6034,block_3,80,20,240,192,461.5,12,230.4,371.6,-141.2,1,less,FALSE,ticket2,7/13/2020
246,246,23124,55,55,9,bkvnluqzwjwe,lt,3802,block_3,20,80,210,168,404,10.5,176.4,89.2,87.2,1,more,TRUE,ticket1,7/13/2020
247,247,23125,57,57,9,bkvnluqzwjwe,lt,3487,block_3,100,0,180,144,346,9,180,346,-166,0,more,TRUE,ticket2,7/13/2020
248,248,23126,59,59,9,bkvnluqzwjwe,lt,1700,block_3,60,40,260,208,500,13,239.2,305.2,-66,1,less,FALSE,ticket2,7/13/2020
249,249,23127,61,61,9,bkvnluqzwjwe,lt,2579,block_3,50,50,210,168,404,10.5,189,207.25,-18.25,1,less,FALSE,ticket2,7/13/2020
250,250,23128,63,63,9,bkvnluqzwjwe,lt,2010,block_3,30,70,180,144,346,9,154.8,110.1,44.7,1,more,TRUE,ticket1,7/13/2020
251,251,23129,65,65,9,bkvnluqzwjwe,lt,4579,block_3,40,60,220,176,423,11,193.6,175.8,17.8,1,more,TRUE,ticket1,7/13/2020
252,252,25861,7,7,10,bkvnluqzwjwe,lt,6106,block_1,30,70,2.4,1.92,4.62,0.12,2.064,1.47,0.594,1,more,TRUE,ticket1,7/13/2020
253,253,25862,9,9,10,bkvnluqzwjwe,lt,4827,block_1,40,60,1.6,1.28,3.08,0.08,1.408,1.28,0.128,1,more,TRUE,ticket1,7/13/2020
254,254,25863,11,11,10,bkvnluqzwjwe,lt,3558,block_1,10,90,2,1.6,3.85,0.1,1.64,0.475,1.165,1,more,TRUE,ticket1,7/13/2020
255,255,25864,13,13,10,bkvnluqzwjwe,lt,2346,block_1,70,30,2.2,1.76,4.23,0.11,2.068,2.994,-0.926,1,less,FALSE,ticket2,7/13/2020
256,256,25865,15,15,10,bkvnluqzwjwe,lt,2423,block_1,80,20,2.2,1.76,4.23,0.11,2.112,3.406,-1.294,1,less,FALSE,ticket2,7/13/2020
257,257,25866,17,17,10,bkvnluqzwjwe,lt,3512,block_1,60,40,1.8,1.44,3.46,0.09,1.656,2.112,-0.456,1,less,FALSE,ticket2,7/13/2020
258,258,25867,19,19,10,bkvnluqzwjwe,lt,3574,block_1,90,10,2.4,1.92,4.62,0.12,2.352,4.17,-1.818,1,less,FALSE,ticket2,7/13/2020
259,259,25868,21,21,10,bkvnluqzwjwe,lt,5310,block_1,50,50,1.6,1.28,3.08,0.08,1.44,1.58,-0.14,1,less,FALSE,ticket2,7/13/2020
260,260,25869,23,23,10,bkvnluqzwjwe,lt,7881,block_1,100,0,2.4,1.92,4.62,0.12,2.4,4.62,-2.22,0,more,TRUE,ticket2,7/13/2020
261,261,25870,26,26,10,bkvnluqzwjwe,lt,2768,block_2,80,20,70,56,134.5,3.5,67.2,108.3,-41.1,1,less,FALSE,ticket2,7/13/2020
262,262,25871,28,28,10,bkvnluqzwjwe,lt,2263,block_2,70,30,55,44,105.75,2.75,51.7,74.85,-23.15,1,less,FALSE,ticket2,7/13/2020
263,263,25872,30,30,10,bkvnluqzwjwe,lt,2544,block_2,60,40,70,56,134.5,3.5,64.4,82.1,-17.7,1,less,FALSE,ticket2,7/13/2020
264,264,25873,32,32,10,bkvnluqzwjwe,lt,3217,block_2,50,50,65,52,125,3.25,58.5,64.125,-5.625,1,less,FALSE,ticket2,7/13/2020
265,265,25874,34,34,10,bkvnluqzwjwe,lt,4126,block_2,100,0,65,52,125,3.25,65,125,-60,0,more,TRUE,ticket2,7/13/2020
266,266,25875,36,36,10,bkvnluqzwjwe,lt,2346,block_2,10,90,60,48,115.5,3,49.2,14.25,34.95,1,more,TRUE,ticket1,7/13/2020
267,267,25876,38,38,10,bkvnluqzwjwe,lt,2143,block_2,90,10,65,52,125,3.25,63.7,112.825,-49.125,1,less,FALSE,ticket2,7/13/2020
268,268,25877,40,40,10,bkvnluqzwjwe,lt,8981,block_2,30,70,65,52,125,3.25,55.9,39.775,16.125,1,more,TRUE,ticket1,7/13/2020
269,269,25878,42,42,10,bkvnluqzwjwe,lt,2133,block_2,40,60,70,56,134.5,3.5,61.6,55.9,5.7,1,more,TRUE,ticket1,7/13/2020
270,270,25879,44,44,10,bkvnluqzwjwe,lt,1824,block_2,20,80,55,44,105.75,2.75,46.2,23.35,22.85,1,more,TRUE,ticket1,7/13/2020
271,271,25880,47,47,10,bkvnluqzwjwe,lt,5458,block_3,30,70,190,152,365.5,9.5,163.4,116.3,47.1,1,more,TRUE,ticket1,7/13/2020
272,272,25881,49,49,10,bkvnluqzwjwe,lt,5002,block_3,100,0,230,184,442.5,11.5,230,442.5,-212.5,0,more,TRUE,ticket2,7/13/2020
273,273,25882,51,51,10,bkvnluqzwjwe,lt,2463,block_3,20,80,240,192,461.5,12,201.6,101.9,99.7,1,more,TRUE,ticket1,7/13/2020
274,274,25883,53,53,10,bkvnluqzwjwe,lt,3252,block_3,70,30,210,168,404,10.5,197.4,285.95,-88.55,1,less,FALSE,ticket2,7/13/2020
275,275,25884,55,55,10,bkvnluqzwjwe,lt,2077,block_3,80,20,180,144,346,9,172.8,278.6,-105.8,1,less,FALSE,ticket2,7/13/2020
276,276,25885,57,57,10,bkvnluqzwjwe,lt,4416,block_3,60,40,210,168,404,10.5,193.2,246.6,-53.4,1,less,FALSE,ticket2,7/13/2020
277,277,25886,59,59,10,bkvnluqzwjwe,lt,3034,block_3,40,60,240,192,461.5,12,211.2,191.8,19.4,1,more,TRUE,ticket1,7/13/2020
278,278,25887,61,61,10,bkvnluqzwjwe,lt,1919,block_3,90,10,190,152,365.5,9.5,186.2,329.9,-143.7,1,less,FALSE,ticket2,7/13/2020
279,279,25888,63,63,10,bkvnluqzwjwe,lt,6163,block_3,10,90,200,160,384.5,10,164,47.45,116.55,1,more,TRUE,ticket1,7/13/2020
280,280,25889,65,65,10,bkvnluqzwjwe,lt,2182,block_3,50,50,180,144,346,9,162,177.5,-15.5,1,less,FALSE,ticket2,7/13/2020
281,281,28531,7,7,11,bkvnluqzwjwe,lt,8187,block_1,60,40,2,1.6,3.85,0.1,1.84,2.35,-0.51,1,less,FALSE,ticket2,7/13/2020
282,282,28532,9,9,11,bkvnluqzwjwe,lt,3748,block_1,90,10,1.4,1.12,2.69,0.07,1.372,2.428,-1.056,1,less,FALSE,ticket2,7/13/2020
283,283,28533,11,11,11,bkvnluqzwjwe,lt,1651,block_1,80,20,2,1.6,3.85,0.1,1.92,3.1,-1.18,1,less,FALSE,ticket2,7/13/2020
284,284,28534,13,13,11,bkvnluqzwjwe,lt,3862,block_1,20,80,2,1.6,3.85,0.1,1.68,0.85,0.83,1,more,TRUE,ticket1,7/13/2020
285,285,28535,15,15,11,bkvnluqzwjwe,lt,3782,block_1,10,90,2,1.6,3.85,0.1,1.64,0.475,1.165,1,more,TRUE,ticket1,7/13/2020
286,286,28536,17,17,11,bkvnluqzwjwe,lt,3524,block_1,100,0,2,1.6,3.85,0.1,2,3.85,-1.85,0,more,TRUE,ticket2,7/13/2020
287,287,28537,19,19,11,bkvnluqzwjwe,lt,3328,block_1,70,30,2,1.6,3.85,0.1,1.88,2.725,-0.845,1,less,FALSE,ticket2,7/13/2020
288,288,28538,21,21,11,bkvnluqzwjwe,lt,2639,block_1,30,70,2.8,2.24,5.38,0.14,2.408,1.712,0.696,1,more,TRUE,ticket1,7/13/2020
289,289,28539,23,23,11,bkvnluqzwjwe,lt,4188,block_1,40,60,1.6,1.28,3.08,0.08,1.408,1.28,0.128,1,more,TRUE,ticket1,7/13/2020
290,290,28540,26,26,11,bkvnluqzwjwe,lt,4408,block_2,80,20,65,52,125,3.25,62.4,100.65,-38.25,1,less,FALSE,ticket2,7/13/2020
291,291,28541,28,28,11,bkvnluqzwjwe,lt,3294,block_2,70,30,70,56,134.5,3.5,65.8,95.2,-29.4,1,less,FALSE,ticket2,7/13/2020
292,292,28542,30,30,11,bkvnluqzwjwe,lt,9065,block_2,100,0,65,52,125,3.25,65,125,-60,0,more,TRUE,ticket2,7/13/2020
293,293,28543,32,32,11,bkvnluqzwjwe,lt,2018,block_2,90,10,70,56,134.5,3.5,68.6,121.4,-52.8,1,less,FALSE,ticket2,7/13/2020
294,294,28544,34,34,11,bkvnluqzwjwe,lt,3223,block_2,30,70,60,48,115.5,3,51.6,36.75,14.85,1,more,TRUE,ticket1,7/13/2020
295,295,28545,36,36,11,bkvnluqzwjwe,lt,2750,block_2,20,80,50,40,96.25,2.5,42,21.25,20.75,1,more,TRUE,ticket1,7/13/2020
296,296,28546,38,38,11,bkvnluqzwjwe,lt,3216,block_2,60,40,55,44,105.75,2.75,50.6,64.55,-13.95,1,less,FALSE,ticket2,7/13/2020
297,297,28547,40,40,11,bkvnluqzwjwe,lt,2981,block_2,40,60,65,52,125,3.25,57.2,51.95,5.25,1,more,TRUE,ticket1,7/13/2020
298,298,28548,42,42,11,bkvnluqzwjwe,lt,2585,block_2,50,50,55,44,105.75,2.75,49.5,54.25,-4.75,1,less,FALSE,ticket2,7/13/2020
299,299,28549,44,44,11,bkvnluqzwjwe,lt,3909,block_2,10,90,65,52,125,3.25,53.3,15.425,37.875,1,more,TRUE,ticket1,7/13/2020
300,300,28550,47,47,11,bkvnluqzwjwe,lt,5472,block_3,10,90,190,152,365.5,9.5,155.8,45.1,110.7,1,more,TRUE,ticket1,7/13/2020
301,301,28551,49,49,11,bkvnluqzwjwe,lt,8492,block_3,100,0,190,152,365.5,9.5,190,365.5,-175.5,0,more,TRUE,ticket2,7/13/2020
302,302,28552,51,51,11,bkvnluqzwjwe,lt,8925,block_3,40,60,220,176,423,11,193.6,175.8,17.8,1,more,TRUE,ticket1,7/13/2020
303,303,28553,53,53,11,bkvnluqzwjwe,lt,3699,block_3,80,20,190,152,365.5,9.5,182.4,294.3,-111.9,1,less,FALSE,ticket2,7/13/2020
304,304,28554,55,55,11,bkvnluqzwjwe,lt,2645,block_3,50,50,230,184,442.5,11.5,207,227,-20,1,less,FALSE,ticket2,7/13/2020
305,305,28555,57,57,11,bkvnluqzwjwe,lt,2648,block_3,20,80,210,168,404,10.5,176.4,89.2,87.2,1,more,TRUE,ticket1,7/13/2020
306,306,28556,59,59,11,bkvnluqzwjwe,lt,3062,block_3,70,30,190,152,365.5,9.5,178.6,258.7,-80.1,1,less,FALSE,ticket2,7/13/2020
307,307,28557,61,61,11,bkvnluqzwjwe,lt,3701,block_3,30,70,180,144,346,9,154.8,110.1,44.7,1,more,TRUE,ticket1,7/13/2020
308,308,28558,63,63,11,bkvnluqzwjwe,lt,7488,block_3,90,10,230,184,442.5,11.5,225.4,399.4,-174,1,less,FALSE,ticket2,7/13/2020
309,309,28559,65,65,11,bkvnluqzwjwe,lt,7285,block_3,60,40,190,152,365.5,9.5,174.8,223.1,-48.3,1,less,FALSE,ticket2,7/13/2020
310,310,31142,9,9,12,bkvnluqzwjwe,lt,1864,block_1,10,90,2.2,1.76,4.23,0.11,1.804,0.522,1.282,1,more,TRUE,ticket1,7/13/2020
311,311,31143,11,11,12,bkvnluqzwjwe,lt,5546,block_1,40,60,1.6,1.28,3.08,0.08,1.408,1.28,0.128,1,more,TRUE,ticket1,7/13/2020
312,312,31144,13,13,12,bkvnluqzwjwe,lt,3101,block_1,80,20,1.8,1.44,3.46,0.09,1.728,2.786,-1.058,1,less,FALSE,ticket2,7/13/2020
313,313,31145,15,15,12,bkvnluqzwjwe,lt,2306,block_1,90,10,1.8,1.44,3.46,0.09,1.764,3.123,-1.359,1,less,FALSE,ticket2,7/13/2020
314,314,31146,17,17,12,bkvnluqzwjwe,lt,2498,block_1,60,40,2.4,1.92,4.62,0.12,2.208,2.82,-0.612,1,less,FALSE,ticket2,7/13/2020
315,315,31147,19,19,12,bkvnluqzwjwe,lt,2905,block_1,30,70,1.8,1.44,3.46,0.09,1.548,1.101,0.447,1,more,TRUE,ticket1,7/13/2020
316,316,31148,21,21,12,bkvnluqzwjwe,lt,3303,block_1,20,80,1.4,1.12,2.69,0.07,1.176,0.594,0.582,1,more,TRUE,ticket1,7/13/2020
317,317,31149,23,23,12,bkvnluqzwjwe,lt,2532,block_1,70,30,1.8,1.44,3.46,0.09,1.692,2.449,-0.757,1,less,FALSE,ticket2,7/13/2020
318,318,31150,26,26,12,bkvnluqzwjwe,lt,4477,block_2,80,20,50,40,96.25,2.5,48,77.5,-29.5,1,less,FALSE,ticket2,7/13/2020
319,319,31151,28,28,12,bkvnluqzwjwe,lt,3602,block_2,60,40,60,48,115.5,3,55.2,70.5,-15.3,1,less,FALSE,ticket2,7/13/2020
320,320,31152,30,30,12,bkvnluqzwjwe,lt,1867,block_2,40,60,60,48,115.5,3,52.8,48,4.8,1,more,TRUE,ticket1,7/13/2020
321,321,31153,32,32,12,bkvnluqzwjwe,lt,2188,block_2,20,80,65,52,125,3.25,54.6,27.6,27,1,more,TRUE,ticket1,7/13/2020
322,322,31154,34,34,12,bkvnluqzwjwe,lt,2283,block_2,50,50,55,44,105.75,2.75,49.5,54.25,-4.75,1,less,FALSE,ticket2,7/13/2020
323,323,31155,36,36,12,bkvnluqzwjwe,lt,1770,block_2,10,90,50,40,96.25,2.5,41,11.875,29.125,1,more,TRUE,ticket1,7/13/2020
324,324,31156,38,38,12,bkvnluqzwjwe,lt,2338,block_2,90,10,55,44,105.75,2.75,53.9,95.45,-41.55,1,less,FALSE,ticket2,7/13/2020
325,325,31157,40,40,12,bkvnluqzwjwe,lt,8083,block_2,70,30,55,44,105.75,2.75,51.7,74.85,-23.15,1,less,FALSE,ticket2,7/13/2020
326,326,31158,42,42,12,bkvnluqzwjwe,lt,2744,block_2,30,70,65,52,125,3.25,55.9,39.775,16.125,1,more,TRUE,ticket1,7/13/2020
327,327,31159,44,44,12,bkvnluqzwjwe,lt,6772,block_2,100,0,60,48,115.5,3,60,115.5,-55.5,0,more,TRUE,ticket2,7/13/2020
328,328,31160,47,47,12,bkvnluqzwjwe,lt,2043,block_3,70,30,190,152,365.5,9.5,178.6,258.7,-80.1,1,less,FALSE,ticket2,7/13/2020
329,329,31161,49,49,12,bkvnluqzwjwe,lt,9282,block_3,40,60,230,184,442.5,11.5,202.4,183.9,18.5,1,more,TRUE,ticket1,7/13/2020
330,330,31162,51,51,12,bkvnluqzwjwe,lt,3786,block_3,30,70,180,144,346,9,154.8,110.1,44.7,1,more,TRUE,ticket1,7/13/2020
331,331,31163,53,53,12,bkvnluqzwjwe,lt,2221,block_3,90,10,200,160,384.5,10,196,347.05,-151.05,1,less,FALSE,ticket2,7/13/2020
332,332,31164,55,55,12,bkvnluqzwjwe,lt,1848,block_3,50,50,220,176,423,11,198,217,-19,1,less,FALSE,ticket2,7/13/2020
333,333,31165,57,57,12,bkvnluqzwjwe,lt,2753,block_3,20,80,210,168,404,10.5,176.4,89.2,87.2,1,more,TRUE,ticket1,7/13/2020
334,334,31166,59,59,12,bkvnluqzwjwe,lt,2233,block_3,10,90,210,168,404,10.5,172.2,49.85,122.35,1,more,TRUE,ticket1,7/13/2020
335,335,31167,61,61,12,bkvnluqzwjwe,lt,4624,block_3,100,0,170,136,327,8.5,170,327,-157,0,more,TRUE,ticket2,7/13/2020
336,336,31168,63,63,12,bkvnluqzwjwe,lt,2466,block_3,80,20,230,184,442.5,11.5,220.8,356.3,-135.5,1,less,FALSE,ticket2,7/13/2020
337,337,31169,65,65,12,bkvnluqzwjwe,lt,1800,block_3,60,40,200,160,384.5,10,184,234.7,-50.7,1,less,FALSE,ticket2,7/13/2020
338,338,91,7,7,1,bprekwckiqdd,lt,4308,block_1,60,40,2,1.6,3.85,0.1,1.84,2.35,-0.51,1,less,FALSE,ticket2,7/13/2020
339,339,92,9,9,1,bprekwckiqdd,lt,8206,block_1,40,60,2.4,1.92,4.62,0.12,2.112,1.92,0.192,1,more,TRUE,ticket1,7/13/2020
340,340,93,11,11,1,bprekwckiqdd,lt,8357,block_1,70,30,1.4,1.12,2.69,0.07,1.316,1.904,-0.588,0,more,TRUE,ticket2,7/13/2020
341,341,94,13,13,1,bprekwckiqdd,lt,5576,block_1,90,10,2,1.6,3.85,0.1,1.96,3.475,-1.515,0,more,TRUE,ticket2,7/13/2020
342,342,95,15,15,1,bprekwckiqdd,lt,3700,block_1,80,20,2.4,1.92,4.62,0.12,2.304,3.72,-1.416,0,more,TRUE,ticket2,7/13/2020
343,343,96,17,17,1,bprekwckiqdd,lt,7388,block_1,50,50,2.2,1.76,4.23,0.11,1.98,2.17,-0.19,0,more,TRUE,ticket2,7/13/2020
344,344,97,19,19,1,bprekwckiqdd,lt,7060,block_1,10,90,2.4,1.92,4.62,0.12,1.968,0.57,1.398,1,more,TRUE,ticket1,7/13/2020
345,345,99,23,23,1,bprekwckiqdd,lt,6004,block_1,100,0,2.8,2.24,5.38,0.14,2.8,5.38,-2.58,0,more,TRUE,ticket2,7/13/2020
346,346,100,26,26,1,bprekwckiqdd,lt,4389,block_2,90,10,65,52,125,3.25,63.7,112.825,-49.125,0,more,TRUE,ticket2,7/13/2020
347,347,101,28,28,1,bprekwckiqdd,lt,8573,block_2,60,40,75,60,144.25,3.75,69,88.05,-19.05,1,less,FALSE,ticket2,7/13/2020
348,348,102,30,30,1,bprekwckiqdd,lt,4625,block_2,50,50,65,52,125,3.25,58.5,64.125,-5.625,1,less,FALSE,ticket2,7/13/2020
349,349,103,32,32,1,bprekwckiqdd,lt,5192,block_2,70,30,55,44,105.75,2.75,51.7,74.85,-23.15,1,less,FALSE,ticket2,7/13/2020
350,350,104,34,34,1,bprekwckiqdd,lt,4747,block_2,20,80,65,52,125,3.25,54.6,27.6,27,1,more,TRUE,ticket1,7/13/2020
351,351,105,36,36,1,bprekwckiqdd,lt,3371,block_2,10,90,55,44,105.75,2.75,45.1,13.05,32.05,1,more,TRUE,ticket1,7/13/2020
352,352,106,38,38,1,bprekwckiqdd,lt,2342,block_2,100,0,60,48,115.5,3,60,115.5,-55.5,1,less,FALSE,ticket2,7/13/2020
353,353,107,40,40,1,bprekwckiqdd,lt,3006,block_2,40,60,65,52,125,3.25,57.2,51.95,5.25,1,more,TRUE,ticket1,7/13/2020
354,354,108,42,42,1,bprekwckiqdd,lt,2457,block_2,30,70,70,56,134.5,3.5,60.2,42.8,17.4,1,more,TRUE,ticket1,7/13/2020
355,355,109,44,44,1,bprekwckiqdd,lt,2016,block_2,80,20,50,40,96.25,2.5,48,77.5,-29.5,1,less,FALSE,ticket2,7/13/2020
356,356,110,47,47,1,bprekwckiqdd,lt,3232,block_3,20,80,170,136,327,8.5,142.8,72.2,70.6,1,more,TRUE,ticket1,7/13/2020
357,357,111,49,49,1,bprekwckiqdd,lt,2013,block_3,80,20,190,152,365.5,9.5,182.4,294.3,-111.9,1,less,FALSE,ticket2,7/13/2020
358,358,112,51,51,1,bprekwckiqdd,lt,2686,block_3,30,70,230,184,442.5,11.5,197.8,140.8,57,1,more,TRUE,ticket1,7/13/2020
359,359,113,53,53,1,bprekwckiqdd,lt,1510,block_3,40,60,210,168,404,10.5,184.8,167.9,16.9,1,more,TRUE,ticket1,7/13/2020
360,360,114,55,55,1,bprekwckiqdd,lt,6848,block_3,100,0,180,144,346,9,180,346,-166,0,more,TRUE,ticket2,7/13/2020
361,361,115,57,57,1,bprekwckiqdd,lt,2718,block_3,50,50,200,160,384.5,10,180,197.25,-17.25,1,less,FALSE,ticket2,7/13/2020
362,362,116,59,59,1,bprekwckiqdd,lt,3928,block_3,90,10,210,168,404,10.5,205.8,364.65,-158.85,0,more,TRUE,ticket2,7/13/2020
363,363,117,61,61,1,bprekwckiqdd,lt,3081,block_3,60,40,210,168,404,10.5,193.2,246.6,-53.4,1,less,FALSE,ticket2,7/13/2020
364,364,118,63,63,1,bprekwckiqdd,lt,5217,block_3,10,90,220,176,423,11,180.4,52.2,128.2,1,more,TRUE,ticket1,7/13/2020
365,365,119,65,65,1,bprekwckiqdd,lt,4471,block_3,70,30,210,168,404,10.5,197.4,285.95,-88.55,1,less,FALSE,ticket2,7/13/2020
366,366,3361,7,7,2,bprekwckiqdd,lt,6134,block_1,60,40,2.2,1.76,4.23,0.11,2.024,2.582,-0.558,1,less,FALSE,ticket2,7/13/2020
367,367,3362,9,9,2,bprekwckiqdd,lt,6277,block_1,10,90,1.4,1.12,2.69,0.07,1.148,0.332,0.816,1,more,TRUE,ticket1,7/13/2020
368,368,3363,11,11,2,bprekwckiqdd,lt,5892,block_1,30,70,2,1.6,3.85,0.1,1.72,1.225,0.495,1,more,TRUE,ticket1,7/13/2020
369,369,3364,13,13,2,bprekwckiqdd,lt,4910,block_1,20,80,2.4,1.92,4.62,0.12,2.016,1.02,0.996,1,more,TRUE,ticket1,7/13/2020
370,370,3365,15,15,2,bprekwckiqdd,lt,7968,block_1,90,10,2,1.6,3.85,0.1,1.96,3.475,-1.515,0,more,TRUE,ticket2,7/13/2020
371,371,3366,17,17,2,bprekwckiqdd,lt,5118,block_1,40,60,2.2,1.76,4.23,0.11,1.936,1.758,0.178,1,more,TRUE,ticket1,7/13/2020
372,372,3367,19,19,2,bprekwckiqdd,lt,5625,block_1,70,30,1.8,1.44,3.46,0.09,1.692,2.449,-0.757,1,less,FALSE,ticket2,7/13/2020
373,373,3368,21,21,2,bprekwckiqdd,lt,5489,block_1,80,20,2.4,1.92,4.62,0.12,2.304,3.72,-1.416,0,more,TRUE,ticket2,7/13/2020
374,374,3369,23,23,2,bprekwckiqdd,lt,4110,block_1,50,50,2.6,2.08,5,0.13,2.34,2.565,-0.225,1,less,FALSE,ticket2,7/13/2020
375,375,3370,26,26,2,bprekwckiqdd,lt,6728,block_2,40,60,65,52,125,3.25,57.2,51.95,5.25,1,more,TRUE,ticket1,7/13/2020
376,376,3371,28,28,2,bprekwckiqdd,lt,2838,block_2,80,20,45,36,86.5,2.25,43.2,69.65,-26.45,1,less,FALSE,ticket2,7/13/2020
377,377,3372,30,30,2,bprekwckiqdd,lt,3608,block_2,60,40,60,48,115.5,3,55.2,70.5,-15.3,1,less,FALSE,ticket2,7/13/2020
378,378,3373,32,32,2,bprekwckiqdd,lt,2608,block_2,70,30,55,44,105.75,2.75,51.7,74.85,-23.15,1,less,FALSE,ticket2,7/13/2020
379,379,3374,34,34,2,bprekwckiqdd,lt,3534,block_2,20,80,50,40,96.25,2.5,42,21.25,20.75,1,more,TRUE,ticket1,7/13/2020
380,380,3375,36,36,2,bprekwckiqdd,lt,3684,block_2,100,0,60,48,115.5,3,60,115.5,-55.5,0,more,TRUE,ticket2,7/13/2020
381,381,3376,38,38,2,bprekwckiqdd,lt,2942,block_2,50,50,60,48,115.5,3,54,59.25,-5.25,1,less,FALSE,ticket2,7/13/2020
382,382,3377,40,40,2,bprekwckiqdd,lt,1607,block_2,30,70,55,44,105.75,2.75,47.3,33.65,13.65,1,more,TRUE,ticket1,7/13/2020
383,383,3378,42,42,2,bprekwckiqdd,lt,3913,block_2,90,10,60,48,115.5,3,58.8,104.25,-45.45,0,more,TRUE,ticket2,7/13/2020
384,384,3379,44,44,2,bprekwckiqdd,lt,3359,block_2,10,90,60,48,115.5,3,49.2,14.25,34.95,1,more,TRUE,ticket1,7/13/2020
385,385,3380,47,47,2,bprekwckiqdd,lt,8176,block_3,80,20,250,200,481,12.5,240,387.3,-147.3,1,less,FALSE,ticket2,7/13/2020
386,386,3381,49,49,2,bprekwckiqdd,lt,3905,block_3,60,40,230,184,442.5,11.5,211.6,270.1,-58.5,1,less,FALSE,ticket2,7/13/2020
387,387,3382,51,51,2,bprekwckiqdd,lt,2667,block_3,40,60,220,176,423,11,193.6,175.8,17.8,1,more,TRUE,ticket1,7/13/2020
388,388,3383,53,53,2,bprekwckiqdd,lt,1811,block_3,50,50,180,144,346,9,162,177.5,-15.5,1,less,FALSE,ticket2,7/13/2020
389,389,3384,55,55,2,bprekwckiqdd,lt,3651,block_3,20,80,190,152,365.5,9.5,159.6,80.7,78.9,1,more,TRUE,ticket1,7/13/2020
390,390,3385,57,57,2,bprekwckiqdd,lt,6199,block_3,100,0,200,160,384.5,10,200,384.5,-184.5,0,more,TRUE,ticket2,7/13/2020
391,391,3386,59,59,2,bprekwckiqdd,lt,3105,block_3,10,90,220,176,423,11,180.4,52.2,128.2,1,more,TRUE,ticket1,7/13/2020
392,392,3387,61,61,2,bprekwckiqdd,lt,3288,block_3,30,70,180,144,346,9,154.8,110.1,44.7,1,more,TRUE,ticket1,7/13/2020
393,393,3388,63,63,2,bprekwckiqdd,lt,2692,block_3,70,30,180,144,346,9,169.2,244.9,-75.7,1,less,FALSE,ticket2,7/13/2020
394,394,6331,10,10,3,bprekwckiqdd,lt,4080,block_1,60,40,1.4,1.12,2.69,0.07,1.288,1.642,-0.354,1,less,FALSE,ticket2,7/13/2020
395,395,6332,12,12,3,bprekwckiqdd,lt,2457,block_1,80,20,2,1.6,3.85,0.1,1.92,3.1,-1.18,1,less,FALSE,ticket2,7/13/2020
396,396,6333,14,14,3,bprekwckiqdd,lt,4742,block_1,50,50,2.6,2.08,5,0.13,2.34,2.565,-0.225,1,less,FALSE,ticket2,7/13/2020
397,397,6334,16,16,3,bprekwckiqdd,lt,2955,block_1,70,30,2.6,2.08,5,0.13,2.444,3.539,-1.095,1,less,FALSE,ticket2,7/13/2020
398,398,6335,18,18,3,bprekwckiqdd,lt,2310,block_1,40,60,2,1.6,3.85,0.1,1.76,1.6,0.16,1,more,TRUE,ticket1,7/13/2020
399,399,6336,20,20,3,bprekwckiqdd,lt,2464,block_1,20,80,2.2,1.76,4.23,0.11,1.848,0.934,0.914,1,more,TRUE,ticket1,7/13/2020
400,400,6337,22,22,3,bprekwckiqdd,lt,2373,block_1,100,0,1.2,0.96,2.31,0.06,1.2,2.31,-1.11,1,less,FALSE,ticket2,7/13/2020
401,401,6338,24,24,3,bprekwckiqdd,lt,3736,block_1,90,10,2.6,2.08,5,0.13,2.548,4.513,-1.965,0,more,TRUE,ticket2,7/13/2020
402,402,6339,26,26,3,bprekwckiqdd,lt,3392,block_1,30,70,2,1.6,3.85,0.1,1.72,1.225,0.495,1,more,TRUE,ticket1,7/13/2020
403,403,6340,29,29,3,bprekwckiqdd,lt,4157,block_2,20,80,70,56,134.5,3.5,58.8,29.7,29.1,1,more,TRUE,ticket1,7/13/2020
404,404,6341,31,31,3,bprekwckiqdd,lt,2293,block_2,100,0,50,40,96.25,2.5,50,96.25,-46.25,0,more,TRUE,ticket2,7/13/2020
405,405,6342,33,33,3,bprekwckiqdd,lt,7487,block_2,40,60,60,48,115.5,3,52.8,48,4.8,1,more,TRUE,ticket1,7/13/2020
406,406,6343,35,35,3,bprekwckiqdd,lt,4943,block_2,80,20,55,44,105.75,2.75,52.8,85.15,-32.35,0,more,TRUE,ticket2,7/13/2020
407,407,6344,37,37,3,bprekwckiqdd,lt,2755,block_2,70,30,60,48,115.5,3,56.4,81.75,-25.35,1,less,FALSE,ticket2,7/13/2020
408,408,6345,39,39,3,bprekwckiqdd,lt,2415,block_2,90,10,65,52,125,3.25,63.7,112.825,-49.125,0,more,TRUE,ticket2,7/13/2020
409,409,6346,41,41,3,bprekwckiqdd,lt,3061,block_2,50,50,60,48,115.5,3,54,59.25,-5.25,1,less,FALSE,ticket2,7/13/2020
410,410,6347,43,43,3,bprekwckiqdd,lt,3017,block_2,10,90,70,56,134.5,3.5,57.4,16.6,40.8,1,more,TRUE,ticket1,7/13/2020
411,411,6348,45,45,3,bprekwckiqdd,lt,2523,block_2,30,70,60,48,115.5,3,51.6,36.75,14.85,1,more,TRUE,ticket1,7/13/2020
412,412,6349,47,47,3,bprekwckiqdd,lt,2026,block_2,60,40,45,36,86.5,2.25,41.4,52.8,-11.4,1,less,FALSE,ticket2,7/13/2020
413,413,6350,50,50,3,bprekwckiqdd,lt,7769,block_3,90,10,230,184,442.5,11.5,225.4,399.4,-174,1,less,FALSE,ticket2,7/13/2020
414,414,6351,52,52,3,bprekwckiqdd,lt,3304,block_3,70,30,190,152,365.5,9.5,178.6,258.7,-80.1,1,less,FALSE,ticket2,7/13/2020
415,415,6352,54,54,3,bprekwckiqdd,lt,2346,block_3,30,70,220,176,423,11,189.2,134.6,54.6,1,more,TRUE,ticket1,7/13/2020
416,416,6353,56,56,3,bprekwckiqdd,lt,1607,block_3,80,20,150,120,288.5,7.5,144,232.3,-88.3,1,less,FALSE,ticket2,7/13/2020
417,417,6354,58,58,3,bprekwckiqdd,lt,1617,block_3,100,0,220,176,423,11,220,423,-203,1,less,FALSE,ticket2,7/13/2020
418,418,6355,60,60,3,bprekwckiqdd,lt,2204,block_3,60,40,200,160,384.5,10,184,234.7,-50.7,1,less,FALSE,ticket2,7/13/2020
419,419,6356,62,62,3,bprekwckiqdd,lt,2036,block_3,50,50,180,144,346,9,162,177.5,-15.5,1,less,FALSE,ticket2,7/13/2020
420,420,6357,64,64,3,bprekwckiqdd,lt,2345,block_3,10,90,190,152,365.5,9.5,155.8,45.1,110.7,1,more,TRUE,ticket1,7/13/2020
421,421,6358,66,66,3,bprekwckiqdd,lt,1920,block_3,20,80,210,168,404,10.5,176.4,89.2,87.2,1,more,TRUE,ticket1,7/13/2020
422,422,6359,68,68,3,bprekwckiqdd,lt,1598,block_3,40,60,240,192,461.5,12,211.2,191.8,19.4,1,more,TRUE,ticket1,7/13/2020
423,423,9360,5,5,4,bprekwckiqdd,lt,8045,block_1,80,20,2.4,1.92,4.62,0.12,2.304,3.72,-1.416,1,less,FALSE,ticket2,7/13/2020
424,424,9361,7,7,4,bprekwckiqdd,lt,7769,block_1,70,30,2.2,1.76,4.23,0.11,2.068,2.994,-0.926,0,more,TRUE,ticket2,7/13/2020
425,425,9362,9,9,4,bprekwckiqdd,lt,5510,block_1,30,70,1.6,1.28,3.08,0.08,1.376,0.98,0.396,1,more,TRUE,ticket1,7/13/2020
426,426,9363,11,11,4,bprekwckiqdd,lt,3483,block_1,60,40,2.8,2.24,5.38,0.14,2.576,3.284,-0.708,1,less,FALSE,ticket2,7/13/2020
427,427,9364,13,13,4,bprekwckiqdd,lt,2760,block_1,100,0,1.8,1.44,3.46,0.09,1.8,3.46,-1.66,0,more,TRUE,ticket2,7/13/2020
428,428,9365,15,15,4,bprekwckiqdd,lt,5416,block_1,20,80,1.6,1.28,3.08,0.08,1.344,0.68,0.664,1,more,TRUE,ticket1,7/13/2020
429,429,9366,17,17,4,bprekwckiqdd,lt,4836,block_1,10,90,1.6,1.28,3.08,0.08,1.312,0.38,0.932,1,more,TRUE,ticket1,7/13/2020
430,430,9367,19,19,4,bprekwckiqdd,lt,2588,block_1,90,10,2.2,1.76,4.23,0.11,2.156,3.818,-1.662,0,more,TRUE,ticket2,7/13/2020
431,431,9368,21,21,4,bprekwckiqdd,lt,3849,block_1,40,60,2.4,1.92,4.62,0.12,2.112,1.92,0.192,1,more,TRUE,ticket1,7/13/2020
432,432,9369,23,23,4,bprekwckiqdd,lt,4537,block_1,50,50,2,1.6,3.85,0.1,1.8,1.975,-0.175,0,more,TRUE,ticket2,7/13/2020
433,433,9370,26,26,4,bprekwckiqdd,lt,4810,block_2,50,50,70,56,134.5,3.5,63,69,-6,1,less,FALSE,ticket2,7/13/2020
434,434,9371,28,28,4,bprekwckiqdd,lt,3721,block_2,70,30,65,52,125,3.25,61.1,88.475,-27.375,0,more,TRUE,ticket2,7/13/2020
435,435,9372,30,30,4,bprekwckiqdd,lt,3049,block_2,80,20,60,48,115.5,3,57.6,93,-35.4,0,more,TRUE,ticket2,7/13/2020
436,436,9373,32,32,4,bprekwckiqdd,lt,2326,block_2,90,10,55,44,105.75,2.75,53.9,95.45,-41.55,0,more,TRUE,ticket2,7/13/2020
437,437,9374,34,34,4,bprekwckiqdd,lt,2251,block_2,100,0,55,44,105.75,2.75,55,105.75,-50.75,0,more,TRUE,ticket2,7/13/2020
438,438,9375,36,36,4,bprekwckiqdd,lt,5576,block_2,60,40,60,48,115.5,3,55.2,70.5,-15.3,0,more,TRUE,ticket2,7/13/2020
439,439,9376,38,38,4,bprekwckiqdd,lt,2536,block_2,20,80,60,48,115.5,3,50.4,25.5,24.9,1,more,TRUE,ticket1,7/13/2020
440,440,9377,40,40,4,bprekwckiqdd,lt,2916,block_2,30,70,60,48,115.5,3,51.6,36.75,14.85,1,more,TRUE,ticket1,7/13/2020
441,441,9378,42,42,4,bprekwckiqdd,lt,2749,block_2,10,90,50,40,96.25,2.5,41,11.875,29.125,1,more,TRUE,ticket1,7/13/2020
442,442,9379,44,44,4,bprekwckiqdd,lt,3677,block_2,40,60,55,44,105.75,2.75,48.4,43.95,4.45,1,more,TRUE,ticket1,7/13/2020
443,443,9380,47,47,4,bprekwckiqdd,lt,2680,block_3,50,50,220,176,423,11,198,217,-19,1,less,FALSE,ticket2,7/13/2020
444,444,9381,49,49,4,bprekwckiqdd,lt,2376,block_3,100,0,220,176,423,11,220,423,-203,1,less,FALSE,ticket2,7/13/2020
445,445,9382,51,51,4,bprekwckiqdd,lt,2717,block_3,90,10,220,176,423,11,215.6,381.8,-166.2,0,more,TRUE,ticket2,7/13/2020
446,446,9383,53,53,4,bprekwckiqdd,lt,1923,block_3,80,20,160,128,307.5,8,153.6,247.6,-94,0,more,TRUE,ticket2,7/13/2020
447,447,9384,55,55,4,bprekwckiqdd,lt,2585,block_3,10,90,200,160,384.5,10,164,47.45,116.55,1,more,TRUE,ticket1,7/13/2020
448,448,9385,57,57,4,bprekwckiqdd,lt,2591,block_3,20,80,170,136,327,8.5,142.8,72.2,70.6,1,more,TRUE,ticket1,7/13/2020
449,449,9386,59,59,4,bprekwckiqdd,lt,5954,block_3,60,40,150,120,288.5,7.5,138,176.1,-38.1,0,more,TRUE,ticket2,7/13/2020
450,450,9387,61,61,4,bprekwckiqdd,lt,2389,block_3,30,70,190,152,365.5,9.5,163.4,116.3,47.1,1,more,TRUE,ticket1,7/13/2020
451,451,9388,63,63,4,bprekwckiqdd,lt,1833,block_3,40,60,200,160,384.5,10,176,159.8,16.2,1,more,TRUE,ticket1,7/13/2020
452,452,9389,65,65,4,bprekwckiqdd,lt,2267,block_3,70,30,190,152,365.5,9.5,178.6,258.7,-80.1,0,more,TRUE,ticket2,7/13/2020
453,453,12270,5,5,5,bprekwckiqdd,lt,8840,block_1,100,0,2,1.6,3.85,0.1,2,3.85,-1.85,0,more,TRUE,ticket2,7/13/2020
454,454,12271,7,7,5,bprekwckiqdd,lt,3208,block_1,90,10,2,1.6,3.85,0.1,1.96,3.475,-1.515,0,more,TRUE,ticket2,7/13/2020
455,455,12272,9,9,5,bprekwckiqdd,lt,3858,block_1,80,20,2.6,2.08,5,0.13,2.496,4.026,-1.53,0,more,TRUE,ticket2,7/13/2020
456,456,12273,11,11,5,bprekwckiqdd,lt,1809,block_1,60,40,2.2,1.76,4.23,0.11,2.024,2.582,-0.558,0,more,TRUE,ticket2,7/13/2020
457,457,12274,13,13,5,bprekwckiqdd,lt,2499,block_1,10,90,2.2,1.76,4.23,0.11,1.804,0.522,1.282,0,less,FALSE,ticket1,7/13/2020
458,458,12275,15,15,5,bprekwckiqdd,lt,3342,block_1,30,70,2.2,1.76,4.23,0.11,1.892,1.346,0.546,1,more,TRUE,ticket1,7/13/2020
459,459,12276,17,17,5,bprekwckiqdd,lt,2574,block_1,70,30,2.6,2.08,5,0.13,2.444,3.539,-1.095,0,more,TRUE,ticket2,7/13/2020
460,460,12277,19,19,5,bprekwckiqdd,lt,1888,block_1,50,50,1.8,1.44,3.46,0.09,1.62,1.775,-0.155,1,less,FALSE,ticket2,7/13/2020
461,461,12278,21,21,5,bprekwckiqdd,lt,1638,block_1,40,60,2.2,1.76,4.23,0.11,1.936,1.758,0.178,1,more,TRUE,ticket1,7/13/2020
462,462,12279,23,23,5,bprekwckiqdd,lt,2333,block_1,20,80,2.2,1.76,4.23,0.11,1.848,0.934,0.914,1,more,TRUE,ticket1,7/13/2020
463,463,12280,26,26,5,bprekwckiqdd,lt,4587,block_2,70,30,55,44,105.75,2.75,51.7,74.85,-23.15,1,less,FALSE,ticket2,7/13/2020
464,464,12281,28,28,5,bprekwckiqdd,lt,4009,block_2,20,80,65,52,125,3.25,54.6,27.6,27,1,more,TRUE,ticket1,7/13/2020
465,465,12282,30,30,5,bprekwckiqdd,lt,2488,block_2,50,50,65,52,125,3.25,58.5,64.125,-5.625,1,less,FALSE,ticket2,7/13/2020
466,466,12283,32,32,5,bprekwckiqdd,lt,3162,block_2,100,0,50,40,96.25,2.5,50,96.25,-46.25,0,more,TRUE,ticket2,7/13/2020
467,467,12284,34,34,5,bprekwckiqdd,lt,3203,block_2,10,90,50,40,96.25,2.5,41,11.875,29.125,1,more,TRUE,ticket1,7/13/2020
468,468,12285,36,36,5,bprekwckiqdd,lt,2853,block_2,40,60,60,48,115.5,3,52.8,48,4.8,1,more,TRUE,ticket1,7/13/2020
469,469,12286,38,38,5,bprekwckiqdd,lt,3620,block_2,80,20,60,48,115.5,3,57.6,93,-35.4,0,more,TRUE,ticket2,7/13/2020
470,470,12287,40,40,5,bprekwckiqdd,lt,2631,block_2,90,10,55,44,105.75,2.75,53.9,95.45,-41.55,0,more,TRUE,ticket2,7/13/2020
471,471,12288,42,42,5,bprekwckiqdd,lt,1730,block_2,30,70,60,48,115.5,3,51.6,36.75,14.85,1,more,TRUE,ticket1,7/13/2020
472,472,12289,44,44,5,bprekwckiqdd,lt,2211,block_2,60,40,55,44,105.75,2.75,50.6,64.55,-13.95,0,more,TRUE,ticket2,7/13/2020
473,473,12290,47,47,5,bprekwckiqdd,lt,2188,block_3,60,40,240,192,461.5,12,220.8,281.7,-60.9,0,more,TRUE,ticket2,7/13/2020
474,474,12291,49,49,5,bprekwckiqdd,lt,3120,block_3,90,10,170,136,327,8.5,166.6,295.15,-128.55,0,more,TRUE,ticket2,7/13/2020
475,475,12292,51,51,5,bprekwckiqdd,lt,3255,block_3,10,90,210,168,404,10.5,172.2,49.85,122.35,1,more,TRUE,ticket1,7/13/2020
476,476,12293,53,53,5,bprekwckiqdd,lt,1996,block_3,70,30,190,152,365.5,9.5,178.6,258.7,-80.1,0,more,TRUE,ticket2,7/13/2020
477,477,12294,55,55,5,bprekwckiqdd,lt,1686,block_3,80,20,210,168,404,10.5,201.6,325.3,-123.7,0,more,TRUE,ticket2,7/13/2020
478,478,12295,57,57,5,bprekwckiqdd,lt,1917,block_3,40,60,230,184,442.5,11.5,202.4,183.9,18.5,1,more,TRUE,ticket1,7/13/2020
479,479,12296,59,59,5,bprekwckiqdd,lt,3604,block_3,100,0,200,160,384.5,10,200,384.5,-184.5,0,more,TRUE,ticket2,7/13/2020
480,480,12297,61,61,5,bprekwckiqdd,lt,1713,block_3,30,70,200,160,384.5,10,172,122.35,49.65,1,more,TRUE,ticket1,7/13/2020
481,481,12298,63,63,5,bprekwckiqdd,lt,1810,block_3,20,80,180,144,346,9,151.2,76.4,74.8,1,more,TRUE,ticket1,7/13/2020
482,482,12299,65,65,5,bprekwckiqdd,lt,1902,block_3,50,50,160,128,307.5,8,144,157.75,-13.75,1,less,FALSE,ticket2,7/13/2020
483,483,15000,5,5,6,bprekwckiqdd,lt,6907,block_1,10,90,2,1.6,3.85,0.1,1.64,0.475,1.165,1,more,TRUE,ticket1,7/13/2020
484,484,15001,7,7,6,bprekwckiqdd,lt,5037,block_1,70,30,1.8,1.44,3.46,0.09,1.692,2.449,-0.757,0,more,TRUE,ticket2,7/13/2020
485,485,15003,11,11,6,bprekwckiqdd,lt,2574,block_1,100,0,2.6,2.08,5,0.13,2.6,5,-2.4,0,more,TRUE,ticket2,7/13/2020
486,486,15004,13,13,6,bprekwckiqdd,lt,2231,block_1,20,80,2.6,2.08,5,0.13,2.184,1.104,1.08,1,more,TRUE,ticket1,7/13/2020
487,487,15005,15,15,6,bprekwckiqdd,lt,4075,block_1,80,20,1.2,0.96,2.31,0.06,1.152,1.86,-0.708,0,more,TRUE,ticket2,7/13/2020
488,488,15006,17,17,6,bprekwckiqdd,lt,2683,block_1,40,60,3,2.4,5.77,0.15,2.64,2.398,0.242,1,more,TRUE,ticket1,7/13/2020
489,489,15007,19,19,6,bprekwckiqdd,lt,1861,block_1,30,70,2.4,1.92,4.62,0.12,2.064,1.47,0.594,1,more,TRUE,ticket1,7/13/2020
490,490,15008,21,21,6,bprekwckiqdd,lt,2412,block_1,50,50,2,1.6,3.85,0.1,1.8,1.975,-0.175,1,less,FALSE,ticket2,7/13/2020
491,491,15009,23,23,6,bprekwckiqdd,lt,2248,block_1,90,10,1.6,1.28,3.08,0.08,1.568,2.78,-1.212,0,more,TRUE,ticket2,7/13/2020
492,492,15010,26,26,6,bprekwckiqdd,lt,3980,block_2,80,20,55,44,105.75,2.75,52.8,85.15,-32.35,0,more,TRUE,ticket2,7/13/2020
493,493,15011,28,28,6,bprekwckiqdd,lt,1621,block_2,10,90,55,44,105.75,2.75,45.1,13.05,32.05,1,more,TRUE,ticket1,7/13/2020
494,494,15012,30,30,6,bprekwckiqdd,lt,2998,block_2,70,30,60,48,115.5,3,56.4,81.75,-25.35,0,more,TRUE,ticket2,7/13/2020
495,495,15013,32,32,6,bprekwckiqdd,lt,1589,block_2,30,70,70,56,134.5,3.5,60.2,42.8,17.4,1,more,TRUE,ticket1,7/13/2020
496,496,15014,34,34,6,bprekwckiqdd,lt,2146,block_2,100,0,70,56,134.5,3.5,70,134.5,-64.5,0,more,TRUE,ticket2,7/13/2020
497,497,15015,36,36,6,bprekwckiqdd,lt,2455,block_2,60,40,55,44,105.75,2.75,50.6,64.55,-13.95,0,more,TRUE,ticket2,7/13/2020
498,498,15016,38,38,6,bprekwckiqdd,lt,2421,block_2,40,60,75,60,144.25,3.75,66,59.95,6.05,1,more,TRUE,ticket1,7/13/2020
499,499,15017,40,40,6,bprekwckiqdd,lt,3322,block_2,20,80,60,48,115.5,3,50.4,25.5,24.9,1,more,TRUE,ticket1,7/13/2020
500,500,15018,42,42,6,bprekwckiqdd,lt,7262,block_2,50,50,75,60,144.25,3.75,67.5,74,-6.5,1,less,FALSE,ticket2,7/13/2020
501,501,15019,44,44,6,bprekwckiqdd,lt,1501,block_2,90,10,65,52,125,3.25,63.7,112.825,-49.125,0,more,TRUE,ticket2,7/13/2020
502,502,15020,47,47,6,bprekwckiqdd,lt,1791,block_3,100,0,210,168,404,10.5,210,404,-194,0,more,TRUE,ticket2,7/13/2020
503,503,15021,49,49,6,bprekwckiqdd,lt,3320,block_3,50,50,200,160,384.5,10,180,197.25,-17.25,1,less,FALSE,ticket2,7/13/2020
504,504,15022,51,51,6,bprekwckiqdd,lt,3046,block_3,90,10,260,208,500,13,254.8,451.3,-196.5,0,more,TRUE,ticket2,7/13/2020
505,505,15023,53,53,6,bprekwckiqdd,lt,1634,block_3,40,60,200,160,384.5,10,176,159.8,16.2,1,more,TRUE,ticket1,7/13/2020
506,506,15024,55,55,6,bprekwckiqdd,lt,2893,block_3,60,40,200,160,384.5,10,184,234.7,-50.7,0,more,TRUE,ticket2,7/13/2020
507,507,15025,57,57,6,bprekwckiqdd,lt,3627,block_3,20,80,220,176,423,11,184.8,93.4,91.4,1,more,TRUE,ticket1,7/13/2020
508,508,15026,59,59,6,bprekwckiqdd,lt,2096,block_3,10,90,190,152,365.5,9.5,155.8,45.1,110.7,1,more,TRUE,ticket1,7/13/2020
509,509,15027,61,61,6,bprekwckiqdd,lt,3460,block_3,30,70,230,184,442.5,11.5,197.8,140.8,57,1,more,TRUE,ticket1,7/13/2020
510,510,15028,63,63,6,bprekwckiqdd,lt,2001,block_3,80,20,180,144,346,9,172.8,278.6,-105.8,0,more,TRUE,ticket2,7/13/2020
511,511,15029,65,65,6,bprekwckiqdd,lt,1637,block_3,70,30,200,160,384.5,10,188,272.15,-84.15,0,more,TRUE,ticket2,7/13/2020
512,512,17730,5,5,7,bprekwckiqdd,lt,8769,block_1,80,20,1.8,1.44,3.46,0.09,1.728,2.786,-1.058,0,more,TRUE,ticket2,7/13/2020
513,513,17731,7,7,7,bprekwckiqdd,lt,3521,block_1,50,50,2.2,1.76,4.23,0.11,1.98,2.17,-0.19,0,more,TRUE,ticket2,7/13/2020
514,514,17732,9,9,7,bprekwckiqdd,lt,3425,block_1,10,90,2.2,1.76,4.23,0.11,1.804,0.522,1.282,1,more,TRUE,ticket1,7/13/2020
515,515,17733,11,11,7,bprekwckiqdd,lt,1598,block_1,60,40,3.2,2.56,6.15,0.16,2.944,3.754,-0.81,0,more,TRUE,ticket2,7/13/2020
516,516,17734,13,13,7,bprekwckiqdd,lt,3045,block_1,40,60,2.4,1.92,4.62,0.12,2.112,1.92,0.192,1,more,TRUE,ticket1,7/13/2020
517,517,17735,15,15,7,bprekwckiqdd,lt,1690,block_1,90,10,2.2,1.76,4.23,0.11,2.156,3.818,-1.662,0,more,TRUE,ticket2,7/13/2020
518,518,17736,17,17,7,bprekwckiqdd,lt,2103,block_1,30,70,2,1.6,3.85,0.1,1.72,1.225,0.495,1,more,TRUE,ticket1,7/13/2020
519,519,17737,19,19,7,bprekwckiqdd,lt,2151,block_1,100,0,1.4,1.12,2.69,0.07,1.4,2.69,-1.29,0,more,TRUE,ticket2,7/13/2020
520,520,17738,21,21,7,bprekwckiqdd,lt,1839,block_1,70,30,1.8,1.44,3.46,0.09,1.692,2.449,-0.757,0,more,TRUE,ticket2,7/13/2020
521,521,17739,23,23,7,bprekwckiqdd,lt,5404,block_1,20,80,1.4,1.12,2.69,0.07,1.176,0.594,0.582,1,more,TRUE,ticket1,7/13/2020
522,522,17740,26,26,7,bprekwckiqdd,lt,1927,block_2,50,50,55,44,105.75,2.75,49.5,54.25,-4.75,0,more,TRUE,ticket2,7/13/2020
523,523,17741,28,28,7,bprekwckiqdd,lt,1944,block_2,70,30,55,44,105.75,2.75,51.7,74.85,-23.15,0,more,TRUE,ticket2,7/13/2020
524,524,17742,30,30,7,bprekwckiqdd,lt,2047,block_2,20,80,75,60,144.25,3.75,63,31.85,31.15,1,more,TRUE,ticket1,7/13/2020
525,525,17743,32,32,7,bprekwckiqdd,lt,1736,block_2,40,60,55,44,105.75,2.75,48.4,43.95,4.45,1,more,TRUE,ticket1,7/13/2020
526,526,17744,34,34,7,bprekwckiqdd,lt,1828,block_2,30,70,55,44,105.75,2.75,47.3,33.65,13.65,1,more,TRUE,ticket1,7/13/2020
527,527,17745,36,36,7,bprekwckiqdd,lt,2844,block_2,10,90,75,60,144.25,3.75,61.5,17.8,43.7,1,more,TRUE,ticket1,7/13/2020
528,528,17746,38,38,7,bprekwckiqdd,lt,1647,block_2,100,0,60,48,115.5,3,60,115.5,-55.5,0,more,TRUE,ticket2,7/13/2020
529,529,17747,40,40,7,bprekwckiqdd,lt,1754,block_2,60,40,50,40,96.25,2.5,46,58.75,-12.75,0,more,TRUE,ticket2,7/13/2020
530,530,17748,42,42,7,bprekwckiqdd,lt,3549,block_2,80,20,65,52,125,3.25,62.4,100.65,-38.25,0,more,TRUE,ticket2,7/13/2020
531,531,17749,44,44,7,bprekwckiqdd,lt,1919,block_2,90,10,55,44,105.75,2.75,53.9,95.45,-41.55,0,more,TRUE,ticket2,7/13/2020
532,532,17750,47,47,7,bprekwckiqdd,lt,1587,block_3,90,10,220,176,423,11,215.6,381.8,-166.2,0,more,TRUE,ticket2,7/13/2020
533,533,17751,49,49,7,bprekwckiqdd,lt,3689,block_3,30,70,230,184,442.5,11.5,197.8,140.8,57,1,more,TRUE,ticket1,7/13/2020
534,534,17752,51,51,7,bprekwckiqdd,lt,2409,block_3,60,40,180,144,346,9,165.6,211.2,-45.6,0,more,TRUE,ticket2,7/13/2020
535,535,17753,53,53,7,bprekwckiqdd,lt,3847,block_3,70,30,190,152,365.5,9.5,178.6,258.7,-80.1,0,more,TRUE,ticket2,7/13/2020
536,536,17754,55,55,7,bprekwckiqdd,lt,1669,block_3,80,20,230,184,442.5,11.5,220.8,356.3,-135.5,0,more,TRUE,ticket2,7/13/2020
537,537,17755,57,57,7,bprekwckiqdd,lt,2635,block_3,50,50,220,176,423,11,198,217,-19,0,more,TRUE,ticket2,7/13/2020
538,538,17756,59,59,7,bprekwckiqdd,lt,2246,block_3,20,80,200,160,384.5,10,168,84.9,83.1,1,more,TRUE,ticket1,7/13/2020
539,539,17757,61,61,7,bprekwckiqdd,lt,2858,block_3,10,90,160,128,307.5,8,131.2,37.95,93.25,1,more,TRUE,ticket1,7/13/2020
540,540,17758,63,63,7,bprekwckiqdd,lt,1595,block_3,100,0,220,176,423,11,220,423,-203,0,more,TRUE,ticket2,7/13/2020
541,541,17759,65,65,7,bprekwckiqdd,lt,1676,block_3,40,60,220,176,423,11,193.6,175.8,17.8,1,more,TRUE,ticket1,7/13/2020
542,542,20400,5,5,8,bprekwckiqdd,lt,6233,block_1,80,20,1.8,1.44,3.46,0.09,1.728,2.786,-1.058,0,more,TRUE,ticket2,7/13/2020
543,543,20401,7,7,8,bprekwckiqdd,lt,1929,block_1,90,10,2.4,1.92,4.62,0.12,2.352,4.17,-1.818,0,more,TRUE,ticket2,7/13/2020
544,544,20402,9,9,8,bprekwckiqdd,lt,1511,block_1,30,70,2,1.6,3.85,0.1,1.72,1.225,0.495,1,more,TRUE,ticket1,7/13/2020
545,545,20403,11,11,8,bprekwckiqdd,lt,2667,block_1,10,90,2.6,2.08,5,0.13,2.132,0.617,1.515,1,more,TRUE,ticket1,7/13/2020
546,546,20404,13,13,8,bprekwckiqdd,lt,4971,block_1,50,50,2,1.6,3.85,0.1,1.8,1.975,-0.175,1,less,FALSE,ticket2,7/13/2020
547,547,20405,15,15,8,bprekwckiqdd,lt,1508,block_1,100,0,2.2,1.76,4.23,0.11,2.2,4.23,-2.03,0,more,TRUE,ticket2,7/13/2020
548,548,20406,17,17,8,bprekwckiqdd,lt,1634,block_1,20,80,2.4,1.92,4.62,0.12,2.016,1.02,0.996,1,more,TRUE,ticket1,7/13/2020
549,549,20407,19,19,8,bprekwckiqdd,lt,1910,block_1,60,40,2.2,1.76,4.23,0.11,2.024,2.582,-0.558,0,more,TRUE,ticket2,7/13/2020
550,550,20408,21,21,8,bprekwckiqdd,lt,2757,block_1,40,60,2.2,1.76,4.23,0.11,1.936,1.758,0.178,1,more,TRUE,ticket1,7/13/2020
551,551,20409,23,23,8,bprekwckiqdd,lt,2890,block_1,70,30,2.2,1.76,4.23,0.11,2.068,2.994,-0.926,0,more,TRUE,ticket2,7/13/2020
552,552,20410,26,26,8,bprekwckiqdd,lt,2228,block_2,90,10,45,36,86.5,2.25,44.1,78.075,-33.975,0,more,TRUE,ticket2,7/13/2020
553,553,20411,28,28,8,bprekwckiqdd,lt,1982,block_2,10,90,70,56,134.5,3.5,57.4,16.6,40.8,1,more,TRUE,ticket1,7/13/2020
554,554,20412,30,30,8,bprekwckiqdd,lt,1829,block_2,100,0,70,56,134.5,3.5,70,134.5,-64.5,1,less,FALSE,ticket2,7/13/2020
555,555,20413,32,32,8,bprekwckiqdd,lt,1688,block_2,30,70,65,52,125,3.25,55.9,39.775,16.125,1,more,TRUE,ticket1,7/13/2020
556,556,20414,34,34,8,bprekwckiqdd,lt,1614,block_2,80,20,65,52,125,3.25,62.4,100.65,-38.25,0,more,TRUE,ticket2,7/13/2020
557,557,20415,36,36,8,bprekwckiqdd,lt,2422,block_2,70,30,55,44,105.75,2.75,51.7,74.85,-23.15,0,more,TRUE,ticket2,7/13/2020
558,558,20416,38,38,8,bprekwckiqdd,lt,2387,block_2,60,40,75,60,144.25,3.75,69,88.05,-19.05,0,more,TRUE,ticket2,7/13/2020
559,559,20417,40,40,8,bprekwckiqdd,lt,4255,block_2,50,50,60,48,115.5,3,54,59.25,-5.25,1,less,FALSE,ticket2,7/13/2020
560,560,20418,42,42,8,bprekwckiqdd,lt,1964,block_2,20,80,60,48,115.5,3,50.4,25.5,24.9,1,more,TRUE,ticket1,7/13/2020
561,561,20419,44,44,8,bprekwckiqdd,lt,2464,block_2,40,60,60,48,115.5,3,52.8,48,4.8,1,more,TRUE,ticket1,7/13/2020
562,562,20420,47,47,8,bprekwckiqdd,lt,1647,block_3,20,80,200,160,384.5,10,168,84.9,83.1,1,more,TRUE,ticket1,7/13/2020
563,563,20421,49,49,8,bprekwckiqdd,lt,1611,block_3,80,20,190,152,365.5,9.5,182.4,294.3,-111.9,0,more,TRUE,ticket2,7/13/2020
564,564,20422,51,51,8,bprekwckiqdd,lt,2331,block_3,90,10,200,160,384.5,10,196,347.05,-151.05,0,more,TRUE,ticket2,7/13/2020
565,565,20423,53,53,8,bprekwckiqdd,lt,3584,block_3,10,90,220,176,423,11,180.4,52.2,128.2,1,more,TRUE,ticket1,7/13/2020
566,566,20424,55,55,8,bprekwckiqdd,lt,1993,block_3,70,30,170,136,327,8.5,159.8,231.45,-71.65,0,more,TRUE,ticket2,7/13/2020
567,567,20425,57,57,8,bprekwckiqdd,lt,1511,block_3,50,50,190,152,365.5,9.5,171,187.5,-16.5,0,more,TRUE,ticket2,7/13/2020
568,568,20426,59,59,8,bprekwckiqdd,lt,1769,block_3,60,40,230,184,442.5,11.5,211.6,270.1,-58.5,0,more,TRUE,ticket2,7/13/2020
569,569,20427,61,61,8,bprekwckiqdd,lt,1596,block_3,30,70,180,144,346,9,154.8,110.1,44.7,1,more,TRUE,ticket1,7/13/2020
570,570,20428,63,63,8,bprekwckiqdd,lt,1968,block_3,100,0,200,160,384.5,10,200,384.5,-184.5,0,more,TRUE,ticket2,7/13/2020
571,571,20429,65,65,8,bprekwckiqdd,lt,1980,block_3,40,60,190,152,365.5,9.5,167.2,151.9,15.3,1,more,TRUE,ticket1,7/13/2020
572,572,23130,5,5,9,bprekwckiqdd,lt,2618,block_1,70,30,2.8,2.24,5.38,0.14,2.632,3.808,-1.176,0,more,TRUE,ticket2,7/13/2020
573,573,23131,7,7,9,bprekwckiqdd,lt,4351,block_1,30,70,2.4,1.92,4.62,0.12,2.064,1.47,0.594,1,more,TRUE,ticket1,7/13/2020
574,574,23132,9,9,9,bprekwckiqdd,lt,2071,block_1,60,40,1.6,1.28,3.08,0.08,1.472,1.88,-0.408,0,more,TRUE,ticket2,7/13/2020
575,575,23133,11,11,9,bprekwckiqdd,lt,3339,block_1,10,90,2,1.6,3.85,0.1,1.64,0.475,1.165,1,more,TRUE,ticket1,7/13/2020
576,576,23134,13,13,9,bprekwckiqdd,lt,2528,block_1,20,80,2.4,1.92,4.62,0.12,2.016,1.02,0.996,1,more,TRUE,ticket1,7/13/2020
577,577,23135,15,15,9,bprekwckiqdd,lt,2041,block_1,90,10,2,1.6,3.85,0.1,1.96,3.475,-1.515,0,more,TRUE,ticket2,7/13/2020
578,578,23136,17,17,9,bprekwckiqdd,lt,2408,block_1,80,20,2,1.6,3.85,0.1,1.92,3.1,-1.18,0,more,TRUE,ticket2,7/13/2020
579,579,23137,19,19,9,bprekwckiqdd,lt,2026,block_1,50,50,2,1.6,3.85,0.1,1.8,1.975,-0.175,0,more,TRUE,ticket2,7/13/2020
580,580,23138,21,21,9,bprekwckiqdd,lt,3596,block_1,40,60,2.4,1.92,4.62,0.12,2.112,1.92,0.192,1,more,TRUE,ticket1,7/13/2020
581,581,23139,23,23,9,bprekwckiqdd,lt,2210,block_1,100,0,2.6,2.08,5,0.13,2.6,5,-2.4,0,more,TRUE,ticket2,7/13/2020
582,582,23140,26,26,9,bprekwckiqdd,lt,1825,block_2,50,50,45,36,86.5,2.25,40.5,44.375,-3.875,0,more,TRUE,ticket2,7/13/2020
583,583,23141,28,28,9,bprekwckiqdd,lt,2831,block_2,10,90,40,32,77,2,32.8,9.5,23.3,1,more,TRUE,ticket1,7/13/2020
584,584,23142,30,30,9,bprekwckiqdd,lt,3282,block_2,30,70,55,44,105.75,2.75,47.3,33.65,13.65,1,more,TRUE,ticket1,7/13/2020
585,585,23143,32,32,9,bprekwckiqdd,lt,2152,block_2,70,30,75,60,144.25,3.75,70.5,102.1,-31.6,0,more,TRUE,ticket2,7/13/2020
586,586,23144,34,34,9,bprekwckiqdd,lt,1896,block_2,80,20,80,64,153.75,4,76.8,123.8,-47,0,more,TRUE,ticket2,7/13/2020
587,587,23145,36,36,9,bprekwckiqdd,lt,1534,block_2,90,10,65,52,125,3.25,63.7,112.825,-49.125,0,more,TRUE,ticket2,7/13/2020
588,588,23146,38,38,9,bprekwckiqdd,lt,2923,block_2,40,60,70,56,134.5,3.5,61.6,55.9,5.7,1,more,TRUE,ticket1,7/13/2020
589,589,23147,40,40,9,bprekwckiqdd,lt,3115,block_2,20,80,55,44,105.75,2.75,46.2,23.35,22.85,1,more,TRUE,ticket1,7/13/2020
590,590,23148,42,42,9,bprekwckiqdd,lt,2275,block_2,100,0,65,52,125,3.25,65,125,-60,0,more,TRUE,ticket2,7/13/2020
591,591,23149,44,44,9,bprekwckiqdd,lt,1555,block_2,60,40,50,40,96.25,2.5,46,58.75,-12.75,0,more,TRUE,ticket2,7/13/2020
592,592,23150,47,47,9,bprekwckiqdd,lt,2380,block_3,10,90,170,136,327,8.5,139.4,40.35,99.05,1,more,TRUE,ticket1,7/13/2020
593,593,23151,49,49,9,bprekwckiqdd,lt,2102,block_3,50,50,160,128,307.5,8,144,157.75,-13.75,0,more,TRUE,ticket2,7/13/2020
594,594,23152,51,51,9,bprekwckiqdd,lt,2490,block_3,20,80,220,176,423,11,184.8,93.4,91.4,1,more,TRUE,ticket1,7/13/2020
595,595,23153,53,53,9,bprekwckiqdd,lt,1894,block_3,30,70,170,136,327,8.5,146.2,104.05,42.15,1,more,TRUE,ticket1,7/13/2020
596,596,23154,55,55,9,bprekwckiqdd,lt,1992,block_3,60,40,210,168,404,10.5,193.2,246.6,-53.4,0,more,TRUE,ticket2,7/13/2020
597,597,23155,57,57,9,bprekwckiqdd,lt,1551,block_3,90,10,200,160,384.5,10,196,347.05,-151.05,0,more,TRUE,ticket2,7/13/2020
598,598,23156,59,59,9,bprekwckiqdd,lt,2252,block_3,100,0,190,152,365.5,9.5,190,365.5,-175.5,0,more,TRUE,ticket2,7/13/2020
599,599,23157,61,61,9,bprekwckiqdd,lt,2097,block_3,80,20,220,176,423,11,211.2,340.6,-129.4,0,more,TRUE,ticket2,7/13/2020
600,600,23158,63,63,9,bprekwckiqdd,lt,2513,block_3,70,30,200,160,384.5,10,188,272.15,-84.15,0,more,TRUE,ticket2,7/13/2020
601,601,23159,65,65,9,bprekwckiqdd,lt,1601,block_3,40,60,240,192,461.5,12,211.2,191.8,19.4,1,more,TRUE,ticket1,7/13/2020
602,602,25890,5,5,10,bprekwckiqdd,lt,3448,block_1,100,0,2.2,1.76,4.23,0.11,2.2,4.23,-2.03,0,more,TRUE,ticket2,7/13/2020
603,603,25891,7,7,10,bprekwckiqdd,lt,2604,block_1,60,40,2.4,1.92,4.62,0.12,2.208,2.82,-0.612,0,more,TRUE,ticket2,7/13/2020
604,604,25892,9,9,10,bprekwckiqdd,lt,1623,block_1,40,60,2.2,1.76,4.23,0.11,1.936,1.758,0.178,1,more,TRUE,ticket1,7/13/2020
605,605,25893,11,11,10,bprekwckiqdd,lt,2048,block_1,30,70,2.2,1.76,4.23,0.11,1.892,1.346,0.546,1,more,TRUE,ticket1,7/13/2020
606,606,25894,13,13,10,bprekwckiqdd,lt,1811,block_1,50,50,2.2,1.76,4.23,0.11,1.98,2.17,-0.19,0,more,TRUE,ticket2,7/13/2020
607,607,25895,15,15,10,bprekwckiqdd,lt,2222,block_1,20,80,1.8,1.44,3.46,0.09,1.512,0.764,0.748,1,more,TRUE,ticket1,7/13/2020
608,608,25896,17,17,10,bprekwckiqdd,lt,2149,block_1,70,30,1.8,1.44,3.46,0.09,1.692,2.449,-0.757,0,more,TRUE,ticket2,7/13/2020
609,609,25897,19,19,10,bprekwckiqdd,lt,1812,block_1,80,20,2.6,2.08,5,0.13,2.496,4.026,-1.53,0,more,TRUE,ticket2,7/13/2020
610,610,25898,21,21,10,bprekwckiqdd,lt,1941,block_1,90,10,1.6,1.28,3.08,0.08,1.568,2.78,-1.212,0,more,TRUE,ticket2,7/13/2020
611,611,25899,23,23,10,bprekwckiqdd,lt,1826,block_1,10,90,1.6,1.28,3.08,0.08,1.312,0.38,0.932,1,more,TRUE,ticket1,7/13/2020
612,612,25900,26,26,10,bprekwckiqdd,lt,1582,block_2,90,10,50,40,96.25,2.5,49,86.875,-37.875,0,more,TRUE,ticket2,7/13/2020
613,613,25901,28,28,10,bprekwckiqdd,lt,1822,block_2,80,20,55,44,105.75,2.75,52.8,85.15,-32.35,0,more,TRUE,ticket2,7/13/2020
614,614,25902,30,30,10,bprekwckiqdd,lt,1988,block_2,100,0,50,40,96.25,2.5,50,96.25,-46.25,0,more,TRUE,ticket2,7/13/2020
615,615,25903,32,32,10,bprekwckiqdd,lt,1818,block_2,30,70,65,52,125,3.25,55.9,39.775,16.125,1,more,TRUE,ticket1,7/13/2020
616,616,25904,34,34,10,bprekwckiqdd,lt,2034,block_2,60,40,40,32,77,2,36.8,47,-10.2,0,more,TRUE,ticket2,7/13/2020
617,617,25905,36,36,10,bprekwckiqdd,lt,2512,block_2,70,30,65,52,125,3.25,61.1,88.475,-27.375,0,more,TRUE,ticket2,7/13/2020
618,618,25906,38,38,10,bprekwckiqdd,lt,1560,block_2,50,50,50,40,96.25,2.5,45,49.375,-4.375,0,more,TRUE,ticket2,7/13/2020
619,619,25907,40,40,10,bprekwckiqdd,lt,2964,block_2,10,90,60,48,115.5,3,49.2,14.25,34.95,1,more,TRUE,ticket1,7/13/2020
620,620,25908,42,42,10,bprekwckiqdd,lt,1693,block_2,40,60,50,40,96.25,2.5,44,40,4,1,more,TRUE,ticket1,7/13/2020
621,621,25909,44,44,10,bprekwckiqdd,lt,1954,block_2,20,80,60,48,115.5,3,50.4,25.5,24.9,1,more,TRUE,ticket1,7/13/2020
622,622,25910,47,47,10,bprekwckiqdd,lt,1723,block_3,20,80,200,160,384.5,10,168,84.9,83.1,1,more,TRUE,ticket1,7/13/2020
623,623,25911,49,49,10,bprekwckiqdd,lt,1796,block_3,80,20,200,160,384.5,10,192,309.6,-117.6,0,more,TRUE,ticket2,7/13/2020
624,624,25912,51,51,10,bprekwckiqdd,lt,1606,block_3,10,90,210,168,404,10.5,172.2,49.85,122.35,1,more,TRUE,ticket1,7/13/2020
625,625,25913,53,53,10,bprekwckiqdd,lt,2118,block_3,50,50,240,192,461.5,12,216,236.75,-20.75,0,more,TRUE,ticket2,7/13/2020
626,626,25914,55,55,10,bprekwckiqdd,lt,2022,block_3,100,0,210,168,404,10.5,210,404,-194,0,more,TRUE,ticket2,7/13/2020
627,627,25915,57,57,10,bprekwckiqdd,lt,2470,block_3,40,60,190,152,365.5,9.5,167.2,151.9,15.3,1,more,TRUE,ticket1,7/13/2020
628,628,25916,59,59,10,bprekwckiqdd,lt,1647,block_3,70,30,240,192,461.5,12,225.6,326.65,-101.05,0,more,TRUE,ticket2,7/13/2020
629,629,25917,61,61,10,bprekwckiqdd,lt,2165,block_3,60,40,200,160,384.5,10,184,234.7,-50.7,0,more,TRUE,ticket2,7/13/2020
630,630,25918,63,63,10,bprekwckiqdd,lt,1567,block_3,90,10,190,152,365.5,9.5,186.2,329.9,-143.7,0,more,TRUE,ticket2,7/13/2020
631,631,25919,65,65,10,bprekwckiqdd,lt,1923,block_3,30,70,180,144,346,9,154.8,110.1,44.7,1,more,TRUE,ticket1,7/13/2020
632,632,28561,7,7,11,bprekwckiqdd,lt,1623,block_1,50,50,2,1.6,3.85,0.1,1.8,1.975,-0.175,0,more,TRUE,ticket2,7/13/2020
633,633,28562,9,9,11,bprekwckiqdd,lt,5009,block_1,20,80,2,1.6,3.85,0.1,1.68,0.85,0.83,1,more,TRUE,ticket1,7/13/2020
634,634,28563,11,11,11,bprekwckiqdd,lt,1905,block_1,80,20,2.2,1.76,4.23,0.11,2.112,3.406,-1.294,1,less,FALSE,ticket2,7/13/2020
635,635,28564,13,13,11,bprekwckiqdd,lt,3712,block_1,40,60,2,1.6,3.85,0.1,1.76,1.6,0.16,0,less,FALSE,ticket1,7/13/2020
636,636,28565,15,15,11,bprekwckiqdd,lt,2046,block_1,90,10,2.2,1.76,4.23,0.11,2.156,3.818,-1.662,0,more,TRUE,ticket2,7/13/2020
637,637,28566,17,17,11,bprekwckiqdd,lt,1656,block_1,100,0,2.2,1.76,4.23,0.11,2.2,4.23,-2.03,0,more,TRUE,ticket2,7/13/2020
638,638,28567,19,19,11,bprekwckiqdd,lt,1501,block_1,60,40,1.8,1.44,3.46,0.09,1.656,2.112,-0.456,0,more,TRUE,ticket2,7/13/2020
639,639,28568,21,21,11,bprekwckiqdd,lt,1650,block_1,70,30,1.2,0.96,2.31,0.06,1.128,1.635,-0.507,0,more,TRUE,ticket2,7/13/2020
640,640,28569,23,23,11,bprekwckiqdd,lt,7664,block_1,30,70,1.6,1.28,3.08,0.08,1.376,0.98,0.396,1,more,TRUE,ticket1,7/13/2020
641,641,28570,26,26,11,bprekwckiqdd,lt,2090,block_2,90,10,60,48,115.5,3,58.8,104.25,-45.45,0,more,TRUE,ticket2,7/13/2020
642,642,28571,28,28,11,bprekwckiqdd,lt,1885,block_2,40,60,50,40,96.25,2.5,44,40,4,1,more,TRUE,ticket1,7/13/2020
643,643,28572,30,30,11,bprekwckiqdd,lt,2148,block_2,50,50,60,48,115.5,3,54,59.25,-5.25,0,more,TRUE,ticket2,7/13/2020
644,644,28573,32,32,11,bprekwckiqdd,lt,1666,block_2,70,30,65,52,125,3.25,61.1,88.475,-27.375,0,more,TRUE,ticket2,7/13/2020
645,645,28574,34,34,11,bprekwckiqdd,lt,2266,block_2,100,0,55,44,105.75,2.75,55,105.75,-50.75,0,more,TRUE,ticket2,7/13/2020
646,646,28575,36,36,11,bprekwckiqdd,lt,1652,block_2,60,40,60,48,115.5,3,55.2,70.5,-15.3,0,more,TRUE,ticket2,7/13/2020
647,647,28576,38,38,11,bprekwckiqdd,lt,1764,block_2,80,20,55,44,105.75,2.75,52.8,85.15,-32.35,0,more,TRUE,ticket2,7/13/2020
648,648,28577,40,40,11,bprekwckiqdd,lt,3991,block_2,30,70,70,56,134.5,3.5,60.2,42.8,17.4,1,more,TRUE,ticket1,7/13/2020
649,649,28578,42,42,11,bprekwckiqdd,lt,2202,block_2,10,90,65,52,125,3.25,53.3,15.425,37.875,1,more,TRUE,ticket1,7/13/2020
650,650,28579,44,44,11,bprekwckiqdd,lt,1891,block_2,20,80,70,56,134.5,3.5,58.8,29.7,29.1,1,more,TRUE,ticket1,7/13/2020
651,651,28580,47,47,11,bprekwckiqdd,lt,2768,block_3,70,30,220,176,423,11,206.8,299.4,-92.6,0,more,TRUE,ticket2,7/13/2020
652,652,28581,49,49,11,bprekwckiqdd,lt,1831,block_3,40,60,150,120,288.5,7.5,132,119.9,12.1,1,more,TRUE,ticket1,7/13/2020
653,653,28582,51,51,11,bprekwckiqdd,lt,1834,block_3,80,20,210,168,404,10.5,201.6,325.3,-123.7,0,more,TRUE,ticket2,7/13/2020
654,654,28583,53,53,11,bprekwckiqdd,lt,1647,block_3,20,80,200,160,384.5,10,168,84.9,83.1,1,more,TRUE,ticket1,7/13/2020
655,655,28584,55,55,11,bprekwckiqdd,lt,1503,block_3,30,70,200,160,384.5,10,172,122.35,49.65,1,more,TRUE,ticket1,7/13/2020
656,656,28585,57,57,11,bprekwckiqdd,lt,2029,block_3,50,50,210,168,404,10.5,189,207.25,-18.25,0,more,TRUE,ticket2,7/13/2020
657,657,28586,59,59,11,bprekwckiqdd,lt,2044,block_3,100,0,170,136,327,8.5,170,327,-157,0,more,TRUE,ticket2,7/13/2020
658,658,28587,61,61,11,bprekwckiqdd,lt,2025,block_3,10,90,190,152,365.5,9.5,155.8,45.1,110.7,1,more,TRUE,ticket1,7/13/2020
659,659,28588,63,63,11,bprekwckiqdd,lt,1769,block_3,90,10,160,128,307.5,8,156.8,277.55,-120.75,0,more,TRUE,ticket2,7/13/2020
660,660,28589,65,65,11,bprekwckiqdd,lt,2054,block_3,60,40,220,176,423,11,202.4,258.2,-55.8,0,more,TRUE,ticket2,7/13/2020
661,661,31170,5,5,12,bprekwckiqdd,lt,5339,block_1,20,80,2.2,1.76,4.23,0.11,1.848,0.934,0.914,1,more,TRUE,ticket1,7/13/2020
662,662,31171,7,7,12,bprekwckiqdd,lt,1839,block_1,10,90,2.4,1.92,4.62,0.12,1.968,0.57,1.398,1,more,TRUE,ticket1,7/13/2020
663,663,31172,9,9,12,bprekwckiqdd,lt,2027,block_1,60,40,2.4,1.92,4.62,0.12,2.208,2.82,-0.612,0,more,TRUE,ticket2,7/13/2020
664,664,31173,11,11,12,bprekwckiqdd,lt,1832,block_1,90,10,2.4,1.92,4.62,0.12,2.352,4.17,-1.818,0,more,TRUE,ticket2,7/13/2020
665,665,31174,13,13,12,bprekwckiqdd,lt,1553,block_1,70,30,1.8,1.44,3.46,0.09,1.692,2.449,-0.757,0,more,TRUE,ticket2,7/13/2020
666,666,31175,15,15,12,bprekwckiqdd,lt,1952,block_1,80,20,2,1.6,3.85,0.1,1.92,3.1,-1.18,0,more,TRUE,ticket2,7/13/2020
667,667,31176,17,17,12,bprekwckiqdd,lt,1866,block_1,50,50,1.8,1.44,3.46,0.09,1.62,1.775,-0.155,0,more,TRUE,ticket2,7/13/2020
668,668,31177,19,19,12,bprekwckiqdd,lt,1677,block_1,100,0,2.2,1.76,4.23,0.11,2.2,4.23,-2.03,0,more,TRUE,ticket2,7/13/2020
669,669,31178,21,21,12,bprekwckiqdd,lt,1787,block_1,30,70,1.4,1.12,2.69,0.07,1.204,0.856,0.348,1,more,TRUE,ticket1,7/13/2020
670,670,31179,23,23,12,bprekwckiqdd,lt,1564,block_1,40,60,2.4,1.92,4.62,0.12,2.112,1.92,0.192,1,more,TRUE,ticket1,7/13/2020
671,671,31180,26,26,12,bprekwckiqdd,lt,2340,block_2,60,40,65,52,125,3.25,59.8,76.3,-16.5,0,more,TRUE,ticket2,7/13/2020
672,672,31181,28,28,12,bprekwckiqdd,lt,2085,block_2,30,70,60,48,115.5,3,51.6,36.75,14.85,1,more,TRUE,ticket1,7/13/2020
673,673,31182,30,30,12,bprekwckiqdd,lt,1893,block_2,80,20,50,40,96.25,2.5,48,77.5,-29.5,0,more,TRUE,ticket2,7/13/2020
674,674,31183,32,32,12,bprekwckiqdd,lt,1510,block_2,100,0,55,44,105.75,2.75,55,105.75,-50.75,0,more,TRUE,ticket2,7/13/2020
675,675,31184,34,34,12,bprekwckiqdd,lt,1898,block_2,40,60,60,48,115.5,3,52.8,48,4.8,1,more,TRUE,ticket1,7/13/2020
676,676,31185,36,36,12,bprekwckiqdd,lt,1561,block_2,10,90,55,44,105.75,2.75,45.1,13.05,32.05,1,more,TRUE,ticket1,7/13/2020
677,677,31186,38,38,12,bprekwckiqdd,lt,2048,block_2,70,30,60,48,115.5,3,56.4,81.75,-25.35,0,more,TRUE,ticket2,7/13/2020
678,678,31187,40,40,12,bprekwckiqdd,lt,1658,block_2,90,10,80,64,153.75,4,78.4,138.775,-60.375,0,more,TRUE,ticket2,7/13/2020
679,679,31188,42,42,12,bprekwckiqdd,lt,1927,block_2,50,50,55,44,105.75,2.75,49.5,54.25,-4.75,0,more,TRUE,ticket2,7/13/2020
680,680,31189,44,44,12,bprekwckiqdd,lt,1733,block_2,20,80,65,52,125,3.25,54.6,27.6,27,1,more,TRUE,ticket1,7/13/2020
681,681,31190,47,47,12,bprekwckiqdd,lt,1506,block_3,90,10,200,160,384.5,10,196,347.05,-151.05,0,more,TRUE,ticket2,7/13/2020
682,682,31191,49,49,12,bprekwckiqdd,lt,1627,block_3,30,70,220,176,423,11,189.2,134.6,54.6,1,more,TRUE,ticket1,7/13/2020
683,683,31192,51,51,12,bprekwckiqdd,lt,1535,block_3,40,60,230,184,442.5,11.5,202.4,183.9,18.5,1,more,TRUE,ticket1,7/13/2020
684,684,31193,53,53,12,bprekwckiqdd,lt,1975,block_3,70,30,170,136,327,8.5,159.8,231.45,-71.65,0,more,TRUE,ticket2,7/13/2020
685,685,31194,55,55,12,bprekwckiqdd,lt,2236,block_3,20,80,210,168,404,10.5,176.4,89.2,87.2,1,more,TRUE,ticket1,7/13/2020
686,686,31195,57,57,12,bprekwckiqdd,lt,1893,block_3,10,90,190,152,365.5,9.5,155.8,45.1,110.7,1,more,TRUE,ticket1,7/13/2020
687,687,31196,59,59,12,bprekwckiqdd,lt,2802,block_3,50,50,220,176,423,11,198,217,-19,0,more,TRUE,ticket2,7/13/2020
688,688,31197,61,61,12,bprekwckiqdd,lt,1933,block_3,60,40,180,144,346,9,165.6,211.2,-45.6,0,more,TRUE,ticket2,7/13/2020
689,689,31198,63,63,12,bprekwckiqdd,lt,1647,block_3,80,20,180,144,346,9,172.8,278.6,-105.8,0,more,TRUE,ticket2,7/13/2020
690,690,31199,65,65,12,bprekwckiqdd,lt,1637,block_3,100,0,180,144,346,9,180,346,-166,0,more,TRUE,ticket2,7/13/2020
691,691,121,7,7,1,bqhkuypudcri,lt,5243,block_1,60,40,1.8,1.44,3.46,0.09,1.656,2.112,-0.456,0,more,TRUE,ticket2,7/13/2020
692,692,122,9,9,1,bqhkuypudcri,lt,2542,block_1,20,80,2.6,2.08,5,0.13,2.184,1.104,1.08,0,less,FALSE,ticket1,7/13/2020
693,693,123,11,11,1,bqhkuypudcri,lt,7560,block_1,90,10,1.4,1.12,2.69,0.07,1.372,2.428,-1.056,0,more,TRUE,ticket2,7/13/2020
694,694,124,13,13,1,bqhkuypudcri,lt,3715,block_1,30,70,2.2,1.76,4.23,0.11,1.892,1.346,0.546,0,less,FALSE,ticket1,7/13/2020
695,695,126,17,17,1,bqhkuypudcri,lt,2595,block_1,40,60,2.2,1.76,4.23,0.11,1.936,1.758,0.178,0,less,FALSE,ticket1,7/13/2020
696,696,127,19,19,1,bqhkuypudcri,lt,3105,block_1,50,50,1.4,1.12,2.69,0.07,1.26,1.38,-0.12,0,more,TRUE,ticket2,7/13/2020
697,697,128,21,21,1,bqhkuypudcri,lt,1978,block_1,10,90,1.8,1.44,3.46,0.09,1.476,0.427,1.049,0,less,FALSE,ticket1,7/13/2020
698,698,129,23,23,1,bqhkuypudcri,lt,1538,block_1,100,0,1.8,1.44,3.46,0.09,1.8,3.46,-1.66,0,more,TRUE,ticket2,7/13/2020
699,699,130,26,26,1,bqhkuypudcri,lt,1871,block_2,60,40,60,48,115.5,3,55.2,70.5,-15.3,0,more,TRUE,ticket2,7/13/2020
700,700,131,28,28,1,bqhkuypudcri,lt,1874,block_2,90,10,55,44,105.75,2.75,53.9,95.45,-41.55,0,more,TRUE,ticket2,7/13/2020
701,701,132,30,30,1,bqhkuypudcri,lt,1923,block_2,50,50,65,52,125,3.25,58.5,64.125,-5.625,0,more,TRUE,ticket2,7/13/2020
702,702,133,32,32,1,bqhkuypudcri,lt,6323,block_2,30,70,55,44,105.75,2.75,47.3,33.65,13.65,1,more,TRUE,ticket1,7/13/2020
703,703,134,34,34,1,bqhkuypudcri,lt,2025,block_2,80,20,75,60,144.25,3.75,72,116.15,-44.15,0,more,TRUE,ticket2,7/13/2020
704,704,135,36,36,1,bqhkuypudcri,lt,1501,block_2,70,30,60,48,115.5,3,56.4,81.75,-25.35,0,more,TRUE,ticket2,7/13/2020
705,705,136,38,38,1,bqhkuypudcri,lt,3011,block_2,10,90,55,44,105.75,2.75,45.1,13.05,32.05,1,more,TRUE,ticket1,7/13/2020
706,706,137,40,40,1,bqhkuypudcri,lt,5199,block_2,40,60,65,52,125,3.25,57.2,51.95,5.25,0,less,FALSE,ticket1,7/13/2020
707,707,138,42,42,1,bqhkuypudcri,lt,1636,block_2,100,0,60,48,115.5,3,60,115.5,-55.5,0,more,TRUE,ticket2,7/13/2020
708,708,139,44,44,1,bqhkuypudcri,lt,2940,block_2,20,80,80,64,153.75,4,67.2,33.95,33.25,1,more,TRUE,ticket1,7/13/2020
709,709,140,47,47,1,bqhkuypudcri,lt,3535,block_3,20,80,240,192,461.5,12,201.6,101.9,99.7,0,less,FALSE,ticket1,7/13/2020
710,710,141,49,49,1,bqhkuypudcri,lt,1912,block_3,70,30,230,184,442.5,11.5,216.2,313.2,-97,0,more,TRUE,ticket2,7/13/2020
711,711,142,51,51,1,bqhkuypudcri,lt,1854,block_3,50,50,200,160,384.5,10,180,197.25,-17.25,0,more,TRUE,ticket2,7/13/2020
712,712,143,53,53,1,bqhkuypudcri,lt,2056,block_3,30,70,190,152,365.5,9.5,163.4,116.3,47.1,0,less,FALSE,ticket1,7/13/2020
713,713,144,55,55,1,bqhkuypudcri,lt,2076,block_3,100,0,220,176,423,11,220,423,-203,0,more,TRUE,ticket2,7/13/2020
714,714,145,57,57,1,bqhkuypudcri,lt,3625,block_3,10,90,210,168,404,10.5,172.2,49.85,122.35,0,less,FALSE,ticket1,7/13/2020
715,715,146,59,59,1,bqhkuypudcri,lt,1917,block_3,60,40,210,168,404,10.5,193.2,246.6,-53.4,0,more,TRUE,ticket2,7/13/2020
716,716,147,61,61,1,bqhkuypudcri,lt,2346,block_3,90,10,170,136,327,8.5,166.6,295.15,-128.55,0,more,TRUE,ticket2,7/13/2020
717,717,148,63,63,1,bqhkuypudcri,lt,1685,block_3,80,20,190,152,365.5,9.5,182.4,294.3,-111.9,0,more,TRUE,ticket2,7/13/2020
718,718,149,65,65,1,bqhkuypudcri,lt,1976,block_3,40,60,180,144,346,9,158.4,143.8,14.6,0,less,FALSE,ticket1,7/13/2020
719,719,3390,8,8,2,bqhkuypudcri,lt,8679,block_1,70,30,2.4,1.92,4.62,0.12,2.256,3.27,-1.014,0,more,TRUE,ticket2,7/13/2020
720,720,3391,10,10,2,bqhkuypudcri,lt,3189,block_1,20,80,2.2,1.76,4.23,0.11,1.848,0.934,0.914,0,less,FALSE,ticket1,7/13/2020
721,721,3392,12,12,2,bqhkuypudcri,lt,3196,block_1,80,20,1.4,1.12,2.69,0.07,1.344,2.166,-0.822,0,more,TRUE,ticket2,7/13/2020
722,722,3393,14,14,2,bqhkuypudcri,lt,4993,block_1,30,70,2.4,1.92,4.62,0.12,2.064,1.47,0.594,0,less,FALSE,ticket1,7/13/2020
723,723,3394,16,16,2,bqhkuypudcri,lt,2357,block_1,100,0,2.2,1.76,4.23,0.11,2.2,4.23,-2.03,0,more,TRUE,ticket2,7/13/2020
724,724,3395,18,18,2,bqhkuypudcri,lt,3138,block_1,40,60,2,1.6,3.85,0.1,1.76,1.6,0.16,0,less,FALSE,ticket1,7/13/2020
725,725,3396,20,20,2,bqhkuypudcri,lt,3027,block_1,90,10,2.2,1.76,4.23,0.11,2.156,3.818,-1.662,0,more,TRUE,ticket2,7/13/2020
726,726,3397,22,22,2,bqhkuypudcri,lt,2039,block_1,60,40,2.4,1.92,4.62,0.12,2.208,2.82,-0.612,0,more,TRUE,ticket2,7/13/2020
727,727,3398,24,24,2,bqhkuypudcri,lt,4253,block_1,10,90,2,1.6,3.85,0.1,1.64,0.475,1.165,0,less,FALSE,ticket1,7/13/2020
728,728,3399,26,26,2,bqhkuypudcri,lt,2498,block_1,50,50,1.8,1.44,3.46,0.09,1.62,1.775,-0.155,0,more,TRUE,ticket2,7/13/2020
729,729,3400,29,29,2,bqhkuypudcri,lt,2722,block_2,70,30,65,52,125,3.25,61.1,88.475,-27.375,0,more,TRUE,ticket2,7/13/2020
730,730,3401,31,31,2,bqhkuypudcri,lt,1572,block_2,80,20,60,48,115.5,3,57.6,93,-35.4,0,more,TRUE,ticket2,7/13/2020
731,731,3402,33,33,2,bqhkuypudcri,lt,1923,block_2,60,40,75,60,144.25,3.75,69,88.05,-19.05,0,more,TRUE,ticket2,7/13/2020
732,732,3403,35,35,2,bqhkuypudcri,lt,2600,block_2,90,10,60,48,115.5,3,58.8,104.25,-45.45,0,more,TRUE,ticket2,7/13/2020
733,733,3404,37,37,2,bqhkuypudcri,lt,1994,block_2,100,0,60,48,115.5,3,60,115.5,-55.5,0,more,TRUE,ticket2,7/13/2020
734,734,3405,39,39,2,bqhkuypudcri,lt,2955,block_2,20,80,50,40,96.25,2.5,42,21.25,20.75,0,less,FALSE,ticket1,7/13/2020
735,735,3406,41,41,2,bqhkuypudcri,lt,2558,block_2,10,90,40,32,77,2,32.8,9.5,23.3,0,less,FALSE,ticket1,7/13/2020
736,736,3407,43,43,2,bqhkuypudcri,lt,2832,block_2,50,50,60,48,115.5,3,54,59.25,-5.25,0,more,TRUE,ticket2,7/13/2020
737,737,3408,45,45,2,bqhkuypudcri,lt,1578,block_2,30,70,50,40,96.25,2.5,43,30.625,12.375,0,less,FALSE,ticket1,7/13/2020
738,738,3409,47,47,2,bqhkuypudcri,lt,2931,block_2,40,60,65,52,125,3.25,57.2,51.95,5.25,0,less,FALSE,ticket1,7/13/2020
739,739,3410,50,50,2,bqhkuypudcri,lt,1903,block_3,90,10,210,168,404,10.5,205.8,364.65,-158.85,0,more,TRUE,ticket2,7/13/2020
740,740,3411,52,52,2,bqhkuypudcri,lt,1940,block_3,40,60,210,168,404,10.5,184.8,167.9,16.9,0,less,FALSE,ticket1,7/13/2020
741,741,3412,54,54,2,bqhkuypudcri,lt,1931,block_3,60,40,200,160,384.5,10,184,234.7,-50.7,0,more,TRUE,ticket2,7/13/2020
742,742,3413,56,56,2,bqhkuypudcri,lt,2059,block_3,10,90,210,168,404,10.5,172.2,49.85,122.35,0,less,FALSE,ticket1,7/13/2020
743,743,3414,58,58,2,bqhkuypudcri,lt,1675,block_3,50,50,210,168,404,10.5,189,207.25,-18.25,0,more,TRUE,ticket2,7/13/2020
744,744,3415,60,60,2,bqhkuypudcri,lt,1684,block_3,70,30,200,160,384.5,10,188,272.15,-84.15,0,more,TRUE,ticket2,7/13/2020
745,745,3416,62,62,2,bqhkuypudcri,lt,1845,block_3,20,80,170,136,327,8.5,142.8,72.2,70.6,0,less,FALSE,ticket1,7/13/2020
746,746,3417,64,64,2,bqhkuypudcri,lt,1774,block_3,80,20,210,168,404,10.5,201.6,325.3,-123.7,0,more,TRUE,ticket2,7/13/2020
747,747,3418,66,66,2,bqhkuypudcri,lt,1695,block_3,30,70,200,160,384.5,10,172,122.35,49.65,0,less,FALSE,ticket1,7/13/2020
748,748,3419,68,68,2,bqhkuypudcri,lt,2718,block_3,100,0,190,152,365.5,9.5,190,365.5,-175.5,0,more,TRUE,ticket2,7/13/2020
749,749,6360,5,5,3,bqhkuypudcri,lt,6358,block_1,60,40,2.8,2.24,5.38,0.14,2.576,3.284,-0.708,0,more,TRUE,ticket2,7/13/2020
750,750,6361,7,7,3,bqhkuypudcri,lt,2365,block_1,50,50,2.4,1.92,4.62,0.12,2.16,2.37,-0.21,0,more,TRUE,ticket2,7/13/2020
751,751,6362,9,9,3,bqhkuypudcri,lt,2398,block_1,70,30,1.2,0.96,2.31,0.06,1.128,1.635,-0.507,0,more,TRUE,ticket2,7/13/2020
752,752,6363,11,11,3,bqhkuypudcri,lt,1915,block_1,30,70,2.6,2.08,5,0.13,2.236,1.591,0.645,0,less,FALSE,ticket1,7/13/2020
753,753,6364,13,13,3,bqhkuypudcri,lt,4269,block_1,20,80,2,1.6,3.85,0.1,1.68,0.85,0.83,0,less,FALSE,ticket1,7/13/2020
754,754,6365,15,15,3,bqhkuypudcri,lt,3742,block_1,10,90,2,1.6,3.85,0.1,1.64,0.475,1.165,1,more,TRUE,ticket1,7/13/2020
755,755,6366,17,17,3,bqhkuypudcri,lt,3095,block_1,40,60,2,1.6,3.85,0.1,1.76,1.6,0.16,0,less,FALSE,ticket1,7/13/2020
756,756,6367,19,19,3,bqhkuypudcri,lt,1914,block_1,90,10,2.2,1.76,4.23,0.11,2.156,3.818,-1.662,0,more,TRUE,ticket2,7/13/2020
757,757,6368,21,21,3,bqhkuypudcri,lt,2430,block_1,100,0,2.2,1.76,4.23,0.11,2.2,4.23,-2.03,0,more,TRUE,ticket2,7/13/2020
758,758,6369,23,23,3,bqhkuypudcri,lt,2141,block_1,80,20,2.4,1.92,4.62,0.12,2.304,3.72,-1.416,0,more,TRUE,ticket2,7/13/2020
759,759,6370,26,26,3,bqhkuypudcri,lt,1979,block_2,80,20,60,48,115.5,3,57.6,93,-35.4,0,more,TRUE,ticket2,7/13/2020
760,760,6371,28,28,3,bqhkuypudcri,lt,3495,block_2,30,70,50,40,96.25,2.5,43,30.625,12.375,1,more,TRUE,ticket1,7/13/2020
761,761,6372,30,30,3,bqhkuypudcri,lt,2378,block_2,40,60,60,48,115.5,3,52.8,48,4.8,1,more,TRUE,ticket1,7/13/2020
762,762,6373,32,32,3,bqhkuypudcri,lt,2096,block_2,10,90,65,52,125,3.25,53.3,15.425,37.875,1,more,TRUE,ticket1,7/13/2020
763,763,6374,34,34,3,bqhkuypudcri,lt,3778,block_2,50,50,70,56,134.5,3.5,63,69,-6,0,more,TRUE,ticket2,7/13/2020
764,764,6375,36,36,3,bqhkuypudcri,lt,2222,block_2,100,0,75,60,144.25,3.75,75,144.25,-69.25,0,more,TRUE,ticket2,7/13/2020
765,765,6376,38,38,3,bqhkuypudcri,lt,1681,block_2,60,40,70,56,134.5,3.5,64.4,82.1,-17.7,0,more,TRUE,ticket2,7/13/2020
766,766,6377,40,40,3,bqhkuypudcri,lt,2241,block_2,20,80,55,44,105.75,2.75,46.2,23.35,22.85,1,more,TRUE,ticket1,7/13/2020
767,767,6378,42,42,3,bqhkuypudcri,lt,1989,block_2,70,30,55,44,105.75,2.75,51.7,74.85,-23.15,0,more,TRUE,ticket2,7/13/2020
768,768,6379,44,44,3,bqhkuypudcri,lt,1830,block_2,90,10,45,36,86.5,2.25,44.1,78.075,-33.975,0,more,TRUE,ticket2,7/13/2020
769,769,6380,47,47,3,bqhkuypudcri,lt,2162,block_3,50,50,230,184,442.5,11.5,207,227,-20,0,more,TRUE,ticket2,7/13/2020
770,770,6381,49,49,3,bqhkuypudcri,lt,6472,block_3,30,70,200,160,384.5,10,172,122.35,49.65,1,more,TRUE,ticket1,7/13/2020
771,771,6382,51,51,3,bqhkuypudcri,lt,2487,block_3,100,0,210,168,404,10.5,210,404,-194,0,more,TRUE,ticket2,7/13/2020
772,772,6383,53,53,3,bqhkuypudcri,lt,3352,block_3,20,80,210,168,404,10.5,176.4,89.2,87.2,1,more,TRUE,ticket1,7/13/2020
773,773,6384,55,55,3,bqhkuypudcri,lt,1968,block_3,90,10,170,136,327,8.5,166.6,295.15,-128.55,0,more,TRUE,ticket2,7/13/2020
774,774,6385,57,57,3,bqhkuypudcri,lt,1538,block_3,70,30,180,144,346,9,169.2,244.9,-75.7,0,more,TRUE,ticket2,7/13/2020
775,775,6386,59,59,3,bqhkuypudcri,lt,3882,block_3,10,90,210,168,404,10.5,172.2,49.85,122.35,1,more,TRUE,ticket1,7/13/2020
776,776,6387,61,61,3,bqhkuypudcri,lt,1674,block_3,80,20,200,160,384.5,10,192,309.6,-117.6,0,more,TRUE,ticket2,7/13/2020
777,777,6388,63,63,3,bqhkuypudcri,lt,3999,block_3,40,60,180,144,346,9,158.4,143.8,14.6,0,less,FALSE,ticket1,7/13/2020
778,778,6389,65,65,3,bqhkuypudcri,lt,1524,block_3,60,40,210,168,404,10.5,193.2,246.6,-53.4,0,more,TRUE,ticket2,7/13/2020
779,779,9390,5,5,4,bqhkuypudcri,lt,3903,block_1,80,20,2.2,1.76,4.23,0.11,2.112,3.406,-1.294,0,more,TRUE,ticket2,7/13/2020
780,780,9391,7,7,4,bqhkuypudcri,lt,2032,block_1,100,0,1.8,1.44,3.46,0.09,1.8,3.46,-1.66,0,more,TRUE,ticket2,7/13/2020
781,781,9392,9,9,4,bqhkuypudcri,lt,3542,block_1,90,10,2.2,1.76,4.23,0.11,2.156,3.818,-1.662,0,more,TRUE,ticket2,7/13/2020
782,782,9393,11,11,4,bqhkuypudcri,lt,2114,block_1,30,70,2.6,2.08,5,0.13,2.236,1.591,0.645,0,less,FALSE,ticket1,7/13/2020
783,783,9394,13,13,4,bqhkuypudcri,lt,3273,block_1,20,80,1.6,1.28,3.08,0.08,1.344,0.68,0.664,0,less,FALSE,ticket1,7/13/2020
784,784,9395,15,15,4,bqhkuypudcri,lt,2206,block_1,60,40,2.6,2.08,5,0.13,2.392,3.052,-0.66,0,more,TRUE,ticket2,7/13/2020
785,785,9396,17,17,4,bqhkuypudcri,lt,3291,block_1,70,30,2.6,2.08,5,0.13,2.444,3.539,-1.095,0,more,TRUE,ticket2,7/13/2020
786,786,9397,19,19,4,bqhkuypudcri,lt,1706,block_1,10,90,2.6,2.08,5,0.13,2.132,0.617,1.515,1,more,TRUE,ticket1,7/13/2020
787,787,9398,21,21,4,bqhkuypudcri,lt,2306,block_1,50,50,2.2,1.76,4.23,0.11,1.98,2.17,-0.19,0,more,TRUE,ticket2,7/13/2020
788,788,9399,23,23,4,bqhkuypudcri,lt,2468,block_1,40,60,1.8,1.44,3.46,0.09,1.584,1.438,0.146,0,less,FALSE,ticket1,7/13/2020
789,789,9400,26,26,4,bqhkuypudcri,lt,2166,block_2,80,20,65,52,125,3.25,62.4,100.65,-38.25,0,more,TRUE,ticket2,7/13/2020
790,790,9401,28,28,4,bqhkuypudcri,lt,2241,block_2,10,90,70,56,134.5,3.5,57.4,16.6,40.8,1,more,TRUE,ticket1,7/13/2020
791,791,9402,30,30,4,bqhkuypudcri,lt,1735,block_2,50,50,70,56,134.5,3.5,63,69,-6,0,more,TRUE,ticket2,7/13/2020
792,792,9403,32,32,4,bqhkuypudcri,lt,2879,block_2,40,60,60,48,115.5,3,52.8,48,4.8,0,less,FALSE,ticket1,7/13/2020
793,793,9404,34,34,4,bqhkuypudcri,lt,4193,block_2,30,70,45,36,86.5,2.25,38.7,27.525,11.175,0,less,FALSE,ticket1,7/13/2020
794,794,9405,36,36,4,bqhkuypudcri,lt,2493,block_2,90,10,75,60,144.25,3.75,73.5,130.2,-56.7,0,more,TRUE,ticket2,7/13/2020
795,795,9406,38,38,4,bqhkuypudcri,lt,3700,block_2,20,80,50,40,96.25,2.5,42,21.25,20.75,1,more,TRUE,ticket1,7/13/2020
796,796,9407,40,40,4,bqhkuypudcri,lt,2148,block_2,100,0,60,48,115.5,3,60,115.5,-55.5,0,more,TRUE,ticket2,7/13/2020
797,797,9408,42,42,4,bqhkuypudcri,lt,2219,block_2,60,40,55,44,105.75,2.75,50.6,64.55,-13.95,0,more,TRUE,ticket2,7/13/2020
798,798,9409,44,44,4,bqhkuypudcri,lt,2932,block_2,70,30,65,52,125,3.25,61.1,88.475,-27.375,0,more,TRUE,ticket2,7/13/2020
799,799,9410,47,47,4,bqhkuypudcri,lt,2424,block_3,10,90,200,160,384.5,10,164,47.45,116.55,1,more,TRUE,ticket1,7/13/2020
800,800,9411,49,49,4,bqhkuypudcri,lt,3088,block_3,30,70,220,176,423,11,189.2,134.6,54.6,1,more,TRUE,ticket1,7/13/2020
801,801,9412,51,51,4,bqhkuypudcri,lt,1566,block_3,20,80,190,152,365.5,9.5,159.6,80.7,78.9,1,more,TRUE,ticket1,7/13/2020
802,802,9413,53,53,4,bqhkuypudcri,lt,2822,block_3,70,30,210,168,404,10.5,197.4,285.95,-88.55,0,more,TRUE,ticket2,7/13/2020
803,803,9414,55,55,4,bqhkuypudcri,lt,2362,block_3,40,60,190,152,365.5,9.5,167.2,151.9,15.3,1,more,TRUE,ticket1,7/13/2020
804,804,9415,57,57,4,bqhkuypudcri,lt,1662,block_3,50,50,210,168,404,10.5,189,207.25,-18.25,0,more,TRUE,ticket2,7/13/2020
805,805,9416,59,59,4,bqhkuypudcri,lt,1923,block_3,80,20,200,160,384.5,10,192,309.6,-117.6,0,more,TRUE,ticket2,7/13/2020
806,806,9417,61,61,4,bqhkuypudcri,lt,1893,block_3,100,0,190,152,365.5,9.5,190,365.5,-175.5,0,more,TRUE,ticket2,7/13/2020
807,807,9418,63,63,4,bqhkuypudcri,lt,4241,block_3,60,40,200,160,384.5,10,184,234.7,-50.7,0,more,TRUE,ticket2,7/13/2020
808,808,9419,65,65,4,bqhkuypudcri,lt,2638,block_3,90,10,200,160,384.5,10,196,347.05,-151.05,0,more,TRUE,ticket2,7/13/2020
809,809,12300,5,5,5,bqhkuypudcri,lt,5353,block_1,60,40,2,1.6,3.85,0.1,1.84,2.35,-0.51,0,more,TRUE,ticket2,7/13/2020
810,810,12301,7,7,5,bqhkuypudcri,lt,2313,block_1,30,70,2.6,2.08,5,0.13,2.236,1.591,0.645,1,more,TRUE,ticket1,7/13/2020
811,811,12303,11,11,5,bqhkuypudcri,lt,4647,block_1,50,50,2.4,1.92,4.62,0.12,2.16,2.37,-0.21,0,more,TRUE,ticket2,7/13/2020
812,812,12304,13,13,5,bqhkuypudcri,lt,1958,block_1,40,60,2,1.6,3.85,0.1,1.76,1.6,0.16,0,less,FALSE,ticket1,7/13/2020
813,813,12308,21,21,5,bqhkuypudcri,lt,5009,block_1,80,20,2.4,1.92,4.62,0.12,2.304,3.72,-1.416,0,more,TRUE,ticket2,7/13/2020
814,814,12310,26,26,5,bqhkuypudcri,lt,2381,block_2,20,80,50,40,96.25,2.5,42,21.25,20.75,1,more,TRUE,ticket1,7/13/2020
815,815,12311,28,28,5,bqhkuypudcri,lt,2333,block_2,100,0,60,48,115.5,3,60,115.5,-55.5,0,more,TRUE,ticket2,7/13/2020
816,816,12312,30,30,5,bqhkuypudcri,lt,1922,block_2,30,70,70,56,134.5,3.5,60.2,42.8,17.4,0,less,FALSE,ticket1,7/13/2020
817,817,12313,32,32,5,bqhkuypudcri,lt,6695,block_2,10,90,60,48,115.5,3,49.2,14.25,34.95,1,more,TRUE,ticket1,7/13/2020
818,818,12314,34,34,5,bqhkuypudcri,lt,1738,block_2,70,30,60,48,115.5,3,56.4,81.75,-25.35,0,more,TRUE,ticket2,7/13/2020
819,819,12315,36,36,5,bqhkuypudcri,lt,2798,block_2,40,60,75,60,144.25,3.75,66,59.95,6.05,1,more,TRUE,ticket1,7/13/2020
820,820,12316,38,38,5,bqhkuypudcri,lt,4942,block_2,90,10,65,52,125,3.25,63.7,112.825,-49.125,1,less,FALSE,ticket2,7/13/2020
821,821,12317,40,40,5,bqhkuypudcri,lt,3892,block_2,50,50,55,44,105.75,2.75,49.5,54.25,-4.75,0,more,TRUE,ticket2,7/13/2020
822,822,12322,51,51,5,bqhkuypudcri,lt,2786,block_3,40,60,230,184,442.5,11.5,202.4,183.9,18.5,0,less,FALSE,ticket1,7/13/2020
823,823,12323,53,53,5,bqhkuypudcri,lt,2753,block_3,80,20,190,152,365.5,9.5,182.4,294.3,-111.9,0,more,TRUE,ticket2,7/13/2020